#timestamp [ns],w_RS_S_x [rad s^-1],w_RS_S_y [rad s^-1],w_RS_S_z [rad s^-1],a_RS_S_x [m s^-2],a_RS_S_y [m s^-2],a_RS_S_z [m s^-2]
1740600248118767667,-0.083090626,0.608266,0.082025364,-3.9205053,-1.1480197,8.836999
1740600248129737125,-0.08735169,0.61572284,0.084155895,-3.9516299,-1.1671734,8.700529
1740600248139297208,-0.101200126,0.6178534,0.08948222,-3.8666358,-1.1683705,8.808268
1740600248149445208,-0.10013486,0.6061355,0.09374327,-3.9875429,-1.1563994,8.827422
1740600248157772083,-0.08628642,0.57311225,0.09054748,-3.965995,-1.1755531,8.756793
1740600248169142708,-0.07243799,0.51452273,0.07882957,-4.0162735,-1.2054806,8.765172
1740600248178662958,-0.05752428,0.43782368,0.07669904,-3.9588125,-1.1408371,8.734048
1740600248186365292,-0.049002163,0.39095205,0.07350325,-3.9695864,-1.1587936,8.762778
1740600248197173250,-0.026631612,0.29827404,0.066046394,-3.8869865,-1.127669,8.730456
1740600248205650792,0.0063915867,0.20026971,0.049002163,-3.843891,-1.1180922,8.754398
1740600248225350333,0.066046394,0.015978966,-0.00958738,-3.8666358,-1.1192893,8.620323
1740600248219144792,0.05539375,0.056459017,0.004261058,-3.8175547,-1.1145009,8.686164
1740600248233641166,0.08735169,-0.056459017,-0.027696876,-3.8881836,-1.1216835,8.615535
1740600248250188708,0.13422333,-0.14913702,-0.04261058,-3.8965633,-1.1911154,8.514978
1740600248258492833,0.13848437,-0.2130529,-0.05219796,-3.9731777,-1.246182,8.391677
1740600248269913584,0.099069595,-0.2759035,-0.041545313,-3.976769,-1.2042835,8.202535
1740600248278038458,0.0479369,-0.3355583,-0.03089267,-3.8414967,-1.1827357,8.1642275
1740600248287766583,0.008522116,-0.3717773,-0.036218993,-3.7373488,-1.1887212,8.305486
1740600248297381542,-0.0031957934,-0.37923414,-0.06498113,-3.7457285,-1.1779473,8.380903
1740600248307842375,0.002130529,-0.3717773,-0.101200126,-3.846285,-1.2198458,8.4347725
1740600248318231375,0.017044231,-0.34940675,-0.12463594,-3.9923313,-1.3072342,8.498219
1740600248325518333,0.025566347,-0.33768883,-0.13102753,-4.009091,-1.34195,8.585608
1740600248337766459,0.0479369,-0.30786142,-0.12463594,-4.0677485,-1.3443443,8.6813755
1740600248347176083,0.053263225,-0.30360037,-0.113983296,-4.0976763,-1.3682863,8.653842
1740600248356191917,0.0628506,-0.28442562,-0.0777643,-4.1036615,-1.3802572,8.584411
1740600248366148834,0.06391586,-0.25353295,-0.056459017,-4.083311,-1.3754689,8.529344
1740600248377410084,0.06391586,-0.21092236,-0.04580637,-4.0785227,-1.365892,8.4647
1740600248386565000,0.05539375,-0.16192019,-0.035153728,-4.2102036,-1.3395559,8.51019
1740600248396212167,0.040480047,-0.1107875,-0.015978966,-4.200627,-1.3084313,8.407239
1740600248406699542,0.022370555,-0.070307456,0.008522116,-4.1575313,-1.3084313,8.429984
1740600248417534250,0.0010652645,-0.041545313,0.033023197,-4.131195,-1.3084313,8.506598
1740600248428266917,-0.010652645,-0.01917476,0.053263225,-4.0258503,-1.3215994,8.603564
1740600248438097959,-0.008522116,-0.00958738,0.05965481,-3.8977604,-1.3275849,8.706514
1740600248448503459,-0.002130529,-0.007456851,0.058589544,-3.8630445,-1.3359646,8.810662
1740600248457677792,0.036218993,-0.018109497,0.054328486,-3.8031895,-1.4041992,8.916007
1740600248466284083,0.053263225,-0.027696876,0.05219796,-3.7612908,-1.4030021,8.925584
1740600248478329833,0.10759171,-0.060720075,0.035153728,-3.6942532,-1.389834,8.798691
1740600248491924666,0.13635385,-0.08841695,0.004261058,-3.7349546,-1.2449849,8.773552
1740600248507869958,0.13528858,-0.12357068,-0.033023197,-3.752911,-1.1839328,8.692149
1740600248497963584,0.13741912,-0.098004326,-0.008522116,-3.7553053,-1.1971009,8.755595
1740600248518017292,0.1257012,-0.15446335,-0.05539375,-3.8007953,-1.2018893,8.637083
1740600248528751250,0.10972224,-0.18429075,-0.068176925,-3.9085343,-1.2162545,8.701726
1740600248536792166,0.07882957,-0.21198763,-0.06178534,-3.9240966,-1.1827357,8.560468
1740600248549271416,0.05006743,-0.22050974,-0.049002163,-4.0258503,-1.198298,8.535329
1740600248558729292,0.026631612,-0.20559604,-0.03089267,-4.000711,-1.1683705,8.613141
1740600248568309125,0.015978966,-0.17150758,-0.01917476,-3.977966,-1.1324574,8.699332
1740600248579244083,0.013848438,-0.12357068,-0.007456851,-3.928885,-1.174356,8.655039
1740600248587206417,0.011717909,-0.10013486,-0.002130529,-3.9456444,-1.1575965,8.628703
1740600248597414917,-0.0127831735,-0.02130529,0.023435818,-3.9755719,-1.1803415,8.682572
1740600248607958583,-0.03195793,0.023435818,0.039414786,-3.9145198,-1.2186487,8.735245
1740600248617903667,-0.04261058,0.066046394,0.054328486,-3.8750155,-1.270124,8.755595
1740600248627294000,-0.046871636,0.10439592,0.060720075,-3.8762126,-1.2378023,8.773552
1740600248637438000,-0.05006743,0.128897,0.070307456,-3.822343,-1.2425907,8.836999
1740600248648489458,-0.053263225,0.14061491,0.07882957,-3.7792473,-1.2366052,8.880095
1740600248658786708,-0.049002163,0.13422333,0.080960095,-3.7181952,-1.2413936,8.8777
1740600248665626584,-0.0479369,0.12783173,0.07882957,-3.7134068,-1.2282255,8.913613
1740600248672898042,-0.04580637,0.10865697,0.07350325,-3.6583402,-1.2425907,8.921992
1740600248688471875,-0.046871636,0.09267801,0.06711166,-3.6355953,-1.2677298,8.880095
1740600248699115833,-0.05539375,0.02876214,0.0479369,-3.608062,-1.283292,8.822633
1740600248707652625,-0.05752428,0.0063915867,0.037284255,-3.6391866,-1.2533646,8.816648
1740600248717946000,-0.05965481,-0.007456851,0.026631612,-3.727772,-1.2976574,8.933964
1740600248728618292,-0.05219796,-0.010652645,0.02130529,-3.7936125,-1.2892777,9.004593
1740600248777871125,-0.025566347,0.018109497,0.033023197,-3.6379895,-1.1755531,8.698134
1740600248737753250,-0.036218993,-0.0127831735,0.025566347,-3.8115692,-1.2797008,8.99741
1740600248749267167,-0.02130529,-0.008522116,0.033023197,-3.7936125,-1.2940661,8.926781
1740600248757732625,-0.00958738,-0.0010652645,0.041545313,-3.7229836,-1.2545617,8.833407
1740600248787287375,-0.046871636,0.026631612,0.023435818,-3.6822822,-1.1899183,8.723274
1740600248767939791,-0.0127831735,0.008522116,0.039414786,-3.657143,-1.2234371,8.77834
1740600248798090833,-0.06178534,0.034088463,0.020240024,-3.716998,-1.22224,8.804677
1740600248808402000,-0.06711166,0.041545313,0.024501082,-3.7912183,-1.22224,8.857349
1740600248817415000,-0.05752428,0.0479369,0.033023197,-3.7792473,-1.2294226,8.862138
1740600248827964875,-0.03834952,0.051132694,0.043675844,-3.7193923,-1.2509704,8.848969
1740600248837957209,-0.022370555,0.05006743,0.05006743,-3.7086184,-1.234211,8.821436
1740600248847453250,-0.0127831735,0.046871636,0.049002163,-3.6236243,-1.198298,8.834604
1740600248857786709,0.0,0.037284255,0.039414786,-3.5697548,-1.1851299,8.789114
1740600248878627292,0.015978966,0.014913702,0.0127831735,-3.6008794,-1.1432313,8.699332
1740600248867878792,0.010652645,0.024501082,0.026631612,-3.5541923,-1.1360487,8.7125
1740600248886455083,0.015978966,0.00958738,0.0063915867,-3.6104562,-1.1611878,8.694544
1740600248898206666,0.010652645,0.0,0.0,-3.774459,-1.1683705,8.688558
1740600248906176833,0.007456851,-0.0010652645,0.0031957934,-3.809175,-1.186327,8.677784
1740600248918550500,0.008522116,-0.004261058,0.015978966,-3.7481227,-1.198298,8.728063
1740600248918559666,0.008522116,-0.004261058,0.015978966,-3.7481227,-1.198298,8.728063
1740600248938299958,0.024501082,-0.0063915867,0.014913702,-3.6846764,-1.1587936,8.726865
1740600248949239750,0.022370555,-0.007456851,0.004261058,-3.6894648,-1.1264719,8.726865
1740600248959739125,0.017044231,-0.007456851,-0.010652645,-3.7912183,-1.1348516,8.700529
1740600248963520917,0.014913702,-0.0053263223,-0.015978966,-3.810372,-1.1384429,8.737639
1740600248977862000,0.018109497,-0.008522116,-0.014913702,-3.8738184,-1.1887212,8.730456
1740600248988635125,0.022370555,-0.015978966,-0.0053263223,-3.8498764,-1.1935096,8.730456
1740600248998129583,0.023435818,-0.027696876,0.0031957934,-3.7912183,-1.1791444,8.689755
1740600249008666000,0.013848438,-0.03834952,0.008522116,-3.7828386,-1.151611,8.659827
1740600249018667625,0.002130529,-0.043675844,0.011717909,-3.810372,-1.1312603,8.725668
1740600249029210375,-0.002130529,-0.04474111,0.011717909,-3.8151605,-1.1528081,8.746018
1740600249038767125,0.0031957934,-0.0479369,0.0053263223,-3.7984009,-1.1468226,8.900445
1740600249048283542,0.008522116,-0.0479369,0.004261058,-3.8043866,-1.1133038,8.918402
1740600249059157500,0.033023197,-0.03834952,0.0053263223,-3.8127663,-1.0893618,8.804677
1740600249067966958,0.035153728,-0.034088463,0.007456851,-3.8151605,-1.0630256,8.809465
1740600249078154000,0.033023197,-0.008522116,0.0127831735,-3.799598,-1.0283096,8.743625
1740600249088591792,0.017044231,0.022370555,0.018109497,-3.90614,-1.0295067,8.663419
1740600249092598125,0.0063915867,0.04261058,0.022370555,-3.9217024,-1.0247183,8.640674
1740600249108683542,-0.03089267,0.10546118,0.037284255,-3.930082,-1.0378864,8.759187
1740600249112476624,-0.040480047,0.12463594,0.04261058,-3.916914,-1.0498575,8.75799
1740600249129421709,-0.05752428,0.17257284,0.058589544,-3.8522706,-1.0402806,8.829816
1740600249129430709,-0.05752428,0.17257284,0.058589544,-3.8043866,-1.0151415,8.844181
1740600249147398542,-0.070307456,0.18961707,0.066046394,-3.7337575,-1.0163386,8.845378
1740600249158643542,-0.080960095,0.19707392,0.05219796,-3.7313633,-0.9959879,8.827422
1740600249170333250,-0.08628642,0.19600865,0.043675844,-3.763685,-1.0055647,8.860941
1740600249177285416,-0.08948222,0.19707392,0.027696876,-3.8857894,-1.0247183,8.942344
1740600249192618833,-0.06711166,0.18216023,0.026631612,-3.9133227,-1.0749966,9.011775
1740600249187373917,-0.0777643,0.18961707,0.026631612,-3.9073372,-1.0809821,9.001001
1740600249207396042,-0.033023197,0.1438107,0.033023197,-3.855862,-1.0450691,9.020155
1740600249218024792,-0.0127831735,0.10226539,0.029827405,-3.739743,-1.0163386,8.947132
1740600249226382583,-0.008522116,0.07989483,0.024501082,-3.728969,-0.9923966,8.90643
1740600249238112959,-0.010652645,0.023435818,0.002130529,-3.7804444,-0.9624691,8.876503
1740600249248627834,-0.011717909,0.008522116,-0.0053263223,-3.7804444,-0.9600749,8.826224
1740600249258589291,-0.017044231,-0.014913702,-0.020240024,-3.8666358,-0.9840169,8.900445
1740600249268409541,-0.013848438,-0.013848438,-0.020240024,-3.891775,-0.9995792,8.929175
1740600249277931916,-0.0010652645,-0.0031957934,-0.018109497,-3.870227,-0.9576807,8.908825
1740600249283013958,0.0031957934,0.0031957934,-0.018109497,-3.8546648,-0.9816227,8.89446
1740600249298528917,0.010652645,0.035153728,-0.014913702,-3.8714242,-0.9624691,8.829816
1740600249306353334,0.011717909,0.05006743,-0.015978966,-3.8762126,-0.9660604,8.821436
1740600249318098500,0.010652645,0.0958738,-0.013848438,-3.9085343,-0.9804256,8.823831
1740600249329247000,0.011717909,0.12996227,-0.0063915867,-3.9205053,-0.9995792,8.767567
1740600249338640042,0.013848438,0.16298546,0.0,-3.9133227,-0.9995792,8.696938
1740600249348257250,0.017044231,0.19600865,0.0053263223,-3.9228995,-0.9840169,8.628703
1740600249357182000,0.014913702,0.22796659,0.010652645,-3.918111,-0.9744401,8.637083
1740600249369377125,0.010652645,0.25672874,0.010652645,-3.9564183,-0.93613285,8.63828
1740600249372515041,0.010652645,0.26844665,0.0127831735,-3.9671922,-0.91817635,8.668207
1740600249388575583,0.020240024,0.29507825,0.015978966,-3.9971197,-0.91937345,8.711303
1740600249398074584,0.039414786,0.29933932,0.015978966,-3.9911342,-0.90500826,8.706514
1740600249407842750,0.05006743,0.29933932,0.015978966,-3.9875429,-0.90261406,8.672996
1740600249418233541,0.07137272,0.28442562,0.00958738,-4.0043025,-0.8738836,8.558074
1740600249457143625,0.083090626,0.16937704,-0.025566347,-4.0438066,-0.770933,8.185776
1740600249429647042,0.07669904,0.27377295,0.0063915867,-4.003105,-0.8571242,8.529344
1740600249437779791,0.08948222,0.22690132,-0.007456851,-3.9671922,-0.82719666,8.395268
1740600249446477875,0.09161274,0.20772657,-0.011717909,-3.9875429,-0.81163436,8.292317
1740600249466418792,0.053263225,0.14168017,-0.040480047,-4.1611223,-0.79248077,8.12233
1740600249478369125,0.0031957934,0.111852765,-0.053263225,-4.3502645,-0.85473,8.192958
1740600249488491625,-0.008522116,0.10652645,-0.054328486,-4.414908,-0.8858546,8.23366
1740600249498995375,-0.017044231,0.08948222,-0.041545313,-4.4340615,-0.9804256,8.34499
1740600249508423541,-0.011717909,0.07882957,-0.026631612,-4.3766007,-0.9911995,8.39886
1740600249519232334,-0.002130529,0.06178534,-0.01917476,-4.262876,-0.94092125,8.377312
1740600249528455000,0.002130529,0.054328486,-0.02130529,-4.226963,-0.9636662,8.391677
1740600249539089959,0.015978966,0.017044231,-0.046871636,-4.0892963,-0.9672575,8.293514
1740600249547709709,0.010652645,-0.015978966,-0.07350325,-4.080917,-0.9648633,8.230068
1740600249553648833,0.0053263223,-0.03089267,-0.083090626,-4.096479,-0.9744401,8.244433
1740600249567682458,-0.013848438,-0.051132694,-0.10226539,-4.2437224,-1.0414777,8.200141
1740600249716037792,-0.015978966,0.50173956,0.16085494,-5.032612,-1.3431472,8.465898
1740600249573007291,-0.035153728,-0.05539375,-0.10972224,-4.337096,-1.1049241,8.280347
1740600249589178541,-0.05219796,-0.0479369,-0.10972224,-4.4603977,-1.1264719,8.371326
1740600249595965250,-0.058589544,-0.018109497,-0.099069595,-4.6255975,-1.1587936,8.4108305
1740600249607753292,-0.05752428,0.023435818,-0.07563378,-4.7070007,-1.1707647,8.503007
1740600249619119791,-0.03195793,0.08628642,-0.029827405,-4.674679,-1.2174516,8.599973
1740600249625212292,-0.02130529,0.10439592,-0.014913702,-4.644751,-1.1971009,8.614338
1740600249637906417,0.0010652645,0.14487597,0.018109497,-4.572925,-1.2557588,8.512584
1740600249649086541,0.0,0.16937704,0.029827405,-4.602853,-1.3120226,8.51019
1740600249658602750,-0.0031957934,0.20879184,0.03089267,-4.735731,-1.3311762,8.461109
1740600249669140375,-0.010652645,0.26418558,0.033023197,-4.8961425,-1.3682863,8.41921
1740600249672555083,-0.017044231,0.294013,0.03834952,-4.9907136,-1.3802572,8.400057
1740600249686906500,-0.03834952,0.36112466,0.058589544,-5.189432,-1.3970166,8.444349
1740600249698975875,-0.04474111,0.4495416,0.1107875,-5.237316,-1.4089876,8.531737
1740600249709480708,-0.041545313,0.46978164,0.12783173,-5.187038,-1.3874398,8.556877
1740600249726022333,-0.0031957934,0.49534798,0.17150758,-4.9224787,-1.2808979,8.286332
1740600249731504667,-0.0053263223,0.48682585,0.17257284,-4.8757915,-1.2749124,8.221688
1740600249731508750,-0.0053263223,0.48682585,0.17257284,-4.8757915,-1.2749124,8.221688
1740600249731774000,-0.0053263223,0.48682585,0.17257284,-4.8757915,-1.2749124,8.221688
1740600249768078416,-0.04580637,0.4133226,0.14594123,-4.746505,-1.1432313,8.012196
1740600249775759208,-0.07456851,0.32597092,0.111852765,-4.5980644,-1.0821792,8.1163435
1740600249785630125,-0.07137272,0.27696875,0.08841695,-4.4879313,-1.0271125,8.157045
1740600249795791708,-0.0628506,0.23009712,0.058589544,-4.547786,-1.0283096,8.133103
1740600249801985750,-0.05965481,0.20985709,0.0479369,-4.6040497,-1.0103531,8.135497
1740600249801904791,-0.05965481,0.20985709,0.0479369,-4.6040497,-1.0103531,8.135497
1740600249801912083,-0.05965481,0.20985709,0.0479369,-4.6040497,-1.0103531,8.135497
1740600249801965166,-0.05965481,0.20985709,0.0479369,-4.6040497,-1.0103531,8.135497
1740600249801993125,-0.05965481,0.20985709,0.0479369,-4.6040497,-1.0103531,8.135497
1740600249856034959,0.0053263223,-0.10013486,0.025566347,-4.5238442,-1.0654198,8.307879
1740600249865855000,0.03089267,-0.16192019,0.015978966,-4.4161053,-1.0115502,8.268375
1740600249875897750,0.046871636,-0.2066613,0.002130529,-4.425682,-1.0486604,8.1642275
1740600249886146625,0.043675844,-0.23648871,-0.013848438,-4.5082817,-1.1121067,8.201338
1740600249895913750,0.03089267,-0.2428803,-0.022370555,-4.667496,-1.1408371,8.25401
1740600249905898959,0.023435818,-0.22264028,-0.015978966,-4.8147397,-1.1791444,8.330625
1740600249915783625,0.033023197,-0.18429075,-0.0010652645,-4.8973393,-1.1827357,8.450335
1740600249925925125,0.058589544,-0.13635385,0.018109497,-4.879383,-1.2054806,8.449138
1740600249935957250,0.08735169,-0.09374327,0.041545313,-4.783615,-1.186327,8.312668
1740600249946136292,0.10333065,-0.05006743,0.06178534,-4.7405195,-1.1563994,8.2276745
1740600249955887584,0.096939065,-0.008522116,0.07350325,-4.7141833,-1.13964,8.117541
1740600249975956083,0.058589544,0.09374327,0.0777643,-4.751293,-1.1228806,8.093599
1740600249965845167,0.07989483,0.04261058,0.07563378,-4.6938324,-1.1252748,8.051701
1740600249985959042,0.035153728,0.1470065,0.083090626,-4.8398786,-1.1264719,8.157045
1740600249995822167,0.01917476,0.1917476,0.0958738,-4.8482585,-1.1575965,8.213309
1740600250005912417,0.011717909,0.22370553,0.10652645,-4.8123455,-1.1815386,8.228871
1740600250015940000,0.015978966,0.24820662,0.111852765,-4.818331,-1.1779473,8.2276745
1740600250026035125,0.027696876,0.26844665,0.112918034,-4.832696,-1.1492168,8.228871
1740600250035883125,0.040480047,0.28549087,0.10546118,-4.855441,-1.0953473,8.173804
1740600250045820791,0.046871636,0.29827404,0.09374327,-4.9536033,-1.0953473,8.082825
1740600250055907709,0.03834952,0.30679616,0.084155895,-5.116409,-1.1061212,7.9583263
1740600250065832292,0.020240024,0.29614353,0.08735169,-5.21936,-1.091756,7.9702973
1740600250075995625,-0.0053263223,0.25885928,0.099069595,-5.1702785,-1.0773908,7.9427643
1740600250085789209,-0.02130529,0.1917476,0.10865697,-5.121197,-1.0654198,7.8984714
1740600250095979125,-0.036218993,0.10546118,0.1107875,-5.0278234,-1.0414777,8.00621
1740600250105983708,-0.04474111,0.011717909,0.10333065,-4.9069166,-0.9828198,8.061277
1740600250115834958,-0.053263225,-0.07563378,0.083090626,-4.841076,-0.9588778,8.118738
1740600250125779042,-0.051132694,-0.14168017,0.06178534,-4.782418,-0.92535895,8.159439
1740600250135752333,-0.037284255,-0.18109496,0.036218993,-4.783615,-0.92775315,8.128315
1740600250146112333,-0.022370555,-0.19920446,0.014913702,-4.783615,-0.93493575,8.103176
1740600250156014666,-0.0063915867,-0.20772657,0.002130529,-4.770447,-0.94451255,8.129512
1740600250165900209,0.0031957934,-0.21731395,-0.002130529,-4.7979803,-0.94331545,8.085219
1740600250175813083,0.007456851,-0.22796659,0.0031957934,-4.7979803,-0.9708488,8.056489
1740600250185887250,0.007456851,-0.24181503,0.0127831735,-4.7046065,-0.973243,8.100781
1740600250195917750,0.008522116,-0.25885928,0.02130529,-4.6220064,-0.92775315,8.135497
1740600250206129000,0.020240024,-0.28229508,0.020240024,-4.4520183,-0.90859956,8.183381
1740600250215912667,0.039414786,-0.3057309,0.0063915867,-4.3287168,-0.8834604,8.234857
1740600250225887250,0.058589544,-0.32810146,-0.015978966,-4.250905,-0.8571242,8.2037325
1740600250236038916,0.07350325,-0.34621096,-0.04261058,-4.271256,-0.830788,8.182184
1740600250246220833,0.082025364,-0.35899413,-0.06498113,-4.3502645,-0.81402856,8.184579
1740600250256006125,0.09267801,-0.36005938,-0.0777643,-4.4208937,-0.7721301,8.226477
1740600250265847125,0.11717909,-0.36005938,-0.07989483,-4.390966,-0.80325466,8.258799
1740600250275840375,0.1470065,-0.35899413,-0.083090626,-4.441244,-0.8343793,8.236053
1740600250285845542,0.16085494,-0.34940675,-0.07563378,-4.4244847,-0.7721301,8.184579
1740600250295942084,0.16724652,-0.34514567,-0.06924219,-4.441244,-0.79367787,8.240842
1740600250305856667,0.165116,-0.3334278,-0.06391586,-4.4244847,-0.7170634,8.252813
1740600250316658958,0.16724652,-0.3323625,-0.056459017,-4.4077253,-0.7685388,8.26239
1740600250325832792,0.1736381,-0.34408042,-0.056459017,-4.3059716,-0.736217,8.269572
1740600250335731917,0.17789917,-0.36432046,-0.05965481,-4.185065,-0.7194576,8.297106
1740600250345767000,0.18216023,-0.39840892,-0.06924219,-4.1024647,-0.664391,8.354567
1740600250355886458,0.18748654,-0.4346279,-0.08735169,-3.9971197,-0.63087213,8.391677
1740600250365977042,0.19600865,-0.47723848,-0.11504856,-3.9552212,-0.61171854,8.441956
1740600250375990500,0.21198763,-0.5273059,-0.14487597,-3.9025488,-0.6476316,8.558074
1740600250386347291,0.23116238,-0.5837649,-0.17044231,-3.8893807,-0.6943185,8.555679
1740600250395927166,0.24394555,-0.6327671,-0.1917476,-3.9719806,-0.7433996,8.5473
1740600250405956167,0.24607609,-0.6625945,-0.20559604,-4.047398,-0.7661445,8.552089
1740600250416230166,0.25033715,-0.6764429,-0.21624869,-4.110844,-0.7745243,8.53892
1740600250426094959,0.25566345,-0.67963874,-0.21837921,-4.3167458,-0.82240826,8.577228
1740600250446440625,0.25672874,-0.65726817,-0.17257284,-4.325125,-0.8475474,8.560468
1740600250435945458,0.25566345,-0.6689861,-0.20026971,-4.370615,-0.8678981,8.610746
1740600250456059167,0.25672874,-0.63702816,-0.13315806,-4.2437224,-0.89184016,8.595184
1740600250466093042,0.25672874,-0.608266,-0.096939065,-4.197036,-0.8487445,8.7771435
1740600250496145625,0.3834952,-0.5432849,-0.0628506,-3.6475663,-0.7074866,9.197326
1740600250476088000,0.27164245,-0.5795039,-0.07350325,-3.9851487,-0.79128367,9.070433
1740600250486137208,0.3174488,-0.5581986,-0.06391586,-3.8187518,-0.760159,9.131485
1740600250506049416,0.43782368,-0.54435015,-0.066046394,-3.3411086,-0.61291564,9.108741
1740600250515967542,0.47510794,-0.572047,-0.07350325,-3.2130187,-0.5494693,9.010578
1740600250526057667,0.48682585,-0.6061355,-0.08522116,-3.1723173,-0.545878,8.870518
1740600250536046708,0.4878911,-0.6359629,-0.101200126,-3.016694,-0.39743748,8.929175
1740600250546435709,0.49002165,-0.6764429,-0.1257012,-2.9149406,-0.34476504,8.950723
1740600250555867167,0.49428272,-0.7190535,-0.15233281,-2.858677,-0.2645593,8.798691
1740600250565984708,0.49215218,-0.76485986,-0.17576863,-2.846706,-0.19752164,8.652645
1740600250575785666,0.46871635,-0.813862,-0.18961707,-2.847903,-0.15442601,8.566454
1740600250585804959,0.4250405,-0.8671253,-0.19600865,-2.8060043,-0.107739076,8.48984
1740600250595882167,0.36964676,-0.91186637,-0.19813919,-2.791639,-0.051475335,8.475474
1740600250605808542,0.3121225,-0.93849796,-0.19920446,-2.8107927,0.017956512,8.522161
1740600250615916375,0.2609898,-0.9438243,-0.19387813,-2.9125464,0.079008654,8.535329
1740600250625885542,0.21944448,-0.9193232,-0.18535602,-2.9939492,0.090979666,8.608353
1740600250635894500,0.18535602,-0.8745821,-0.17150758,-2.9963434,0.08020575,8.643068
1740600250646055000,0.16298546,-0.8213189,-0.15446335,-2.9831753,0.038307227,8.655039
1740600250656340708,0.13422333,-0.76485986,-0.128897,-3.004723,0.0011971008,8.614338
1740600250665948292,0.094808534,-0.6956177,-0.094808534,-2.9412768,-0.01436521,8.599973
1740600250676217250,0.046871636,-0.62317973,-0.05965481,-2.8790276,0.062249243,8.653842
1740600250686254208,0.00958738,-0.5432849,-0.027696876,-2.870648,0.11851298,8.702923
1740600250696029541,-0.015978966,-0.45486793,-0.002130529,-2.835932,0.1436521,8.77834
1740600250706035500,-0.041545313,-0.37390783,0.02130529,-2.801216,0.22864626,8.774749
1740600250716152750,-0.06498113,-0.30786142,0.04474111,-2.790442,0.2657564,8.784326
1740600250726039541,-0.09374327,-0.25992453,0.06924219,-2.707842,0.25498247,8.831013
1740600250736297041,-0.12463594,-0.23222765,0.08735169,-2.706645,0.25019407,8.810662
1740600250746363166,-0.15978967,-0.221575,0.10546118,-2.6862943,0.20590134,8.8884735
1740600250756344708,-0.20772657,-0.22796659,0.12463594,-2.6503813,0.16879122,8.977059
1740600250766031084,-0.257794,-0.23861924,0.15126756,-2.6240451,0.10654198,9.203311
1740600250775968084,-0.29188246,-0.2514024,0.18322548,-2.5270798,0.08619126,9.440337
1740600250785906333,-0.28868666,-0.25672874,0.20879184,-2.4121583,0.090979666,9.709685
1740600250796316666,-0.24714136,-0.24927188,0.22370553,-2.315193,0.12569559,9.888053
1740600250806224416,-0.18002969,-0.23542345,0.22264028,-2.2385786,0.10414778,9.910798
1740600250815948583,-0.111852765,-0.22370553,0.21198763,-2.1811178,0.12330139,9.904813
1740600250826342500,-0.05965481,-0.22796659,0.20240025,-2.0817583,0.08140286,9.880871
1740600250836277542,-0.029827405,-0.25353295,0.20133498,-2.0099323,0.050278235,9.787497
1740600250846332125,-0.024501082,-0.28655612,0.20772657,-1.9440918,0.046686932,9.698911
1740600250856026333,-0.033023197,-0.3089267,0.21411815,-1.8219875,-0.0047884034,9.619903
1740600250866031000,-0.05539375,-0.3089267,0.20772657,-1.8734628,-0.047884032,9.613917
1740600250876262875,-0.080960095,-0.28016454,0.19813919,-2.0242975,-0.10414778,9.556456
1740600250886335000,-0.10546118,-0.23329292,0.20026971,-2.1799207,-0.22744916,9.622296
1740600250906340542,-0.12783173,-0.13528858,0.26205507,-2.4277205,-0.33039984,9.758766
1740600250896067042,-0.12250541,-0.18109496,0.21837921,-2.348712,-0.2837129,9.720459
1740600250915947209,-0.1257012,-0.099069595,0.3110572,-2.2900538,-0.4177882,9.734824
1740600250931239250,-0.13422333,-0.06924219,0.3685815,-1.9991584,-0.4357447,9.709685
1740600250936346416,-0.1438107,-0.0628506,0.37710363,-1.8854338,-0.4381389,9.67856
1740600250946336583,-0.16192019,-0.05219796,0.38136467,-1.7262194,-0.46088383,9.738416
1740600250956330458,-0.17150758,-0.040480047,0.3685815,-1.6005238,-0.50517654,9.903615
1740600250966049333,-0.1555286,-0.024501082,0.35153726,-1.6244658,-0.5255273,10.031705
1740600250976342458,-0.12357068,-0.0053263223,0.3387541,-1.6184803,-0.5746084,10.061633
1740600250986327000,-0.09054748,0.014913702,0.33449304,-1.5562311,-0.59495914,10.053253
1740600250996309458,-0.070307456,0.027696876,0.3323625,-1.4532804,-0.62249243,10.0748005
1740600251005951250,-0.06391586,0.039414786,0.330232,-1.3611037,-0.60693014,10.041282
1740600251016315917,-0.058589544,0.054328486,0.32384038,-1.3084313,-0.5398925,9.976639
1740600251026041750,-0.046871636,0.07989483,0.30999196,-1.3431472,-0.5374983,9.991004
1740600251036314000,-0.039414786,0.11717909,0.2972088,-1.4377182,-0.5303157,9.97185
1740600251046305458,-0.035153728,0.16085494,0.2876214,-1.5861586,-0.51714754,9.970653
1740600251056310750,-0.034088463,0.19813919,0.2790993,-1.6639702,-0.50996494,9.941922
1740600251066023041,-0.041545313,0.22583607,0.2790993,-1.7729063,-0.5518635,9.92636
1740600251076232916,-0.05539375,0.23648871,0.28975195,-1.8363527,-0.60094464,9.903615
1740600251086157000,-0.06924219,0.2396845,0.3057309,-1.9393034,-0.6368576,9.853337
1740600251096160709,-0.07882957,0.24501082,0.3270362,-2.0602105,-0.62129533,9.892841
1740600251106181709,-0.07563378,0.25566345,0.34408042,-2.1080947,-0.6607997,9.861717
1740600251116347000,-0.05965481,0.26312032,0.35473305,-2.1332338,-0.6512229,9.850943
1740600251126028625,-0.035153728,0.26844665,0.35792887,-2.1667526,-0.62488663,9.79827
1740600251136142875,-0.017044231,0.26631612,0.36005938,-2.1080947,-0.59136784,9.616311
1740600251146033833,-0.017044231,0.25672874,0.35792887,-2.1811178,-0.5781997,9.39365
1740600251156199750,-0.043675844,0.24607609,0.35260254,-2.2409728,-0.58418524,9.244013
1740600251166024583,-0.08735169,0.22690132,0.3472762,-2.2828712,-0.60812724,9.23683
1740600251176390875,-0.13315806,0.1949434,0.34408042,-2.3199813,-0.7194576,9.227253
1740600251186026083,-0.16937704,0.1555286,0.34194988,-2.3511062,-0.7733272,9.3421755
1740600251219081542,-0.15978967,0.058589544,0.3206446,-2.12246,-0.8571242,9.376891
1740600251196186125,-0.18429075,0.11504856,0.34088463,-2.2888567,-0.8295909,9.42238
1740600251206250250,-0.18216023,0.07882957,0.3355583,-2.1775265,-0.80086046,9.451111
1740600251228681416,-0.14061491,0.058589544,0.29614353,-2.0973208,-0.90500826,9.415198
1740600251238651083,-0.12037488,0.07456851,0.26631612,-2.183512,-0.91219085,9.408015
1740600251248351542,-0.098004326,0.10226539,0.2428803,-2.3451207,-0.91099375,9.460688
1740600251258422875,-0.06498113,0.13741912,0.23116238,-2.4301147,-0.8870517,9.394848
1740600251268985166,-0.026631612,0.16724652,0.23222765,-2.4241292,-0.82121116,9.323022
1740600251278104959,0.0053263223,0.18109496,0.2428803,-2.3774424,-0.78410107,9.174581
1740600251285729375,0.011717909,0.18429075,0.24927188,-2.3630772,-0.7529764,9.083601
1740600251298439167,-0.007456851,0.19068234,0.26312032,-2.3570917,-0.6991069,8.957906
1740600251308639333,-0.04261058,0.19813919,0.2695119,-2.3702598,-0.6931214,8.924387
1740600251328976000,-0.10439592,0.22370553,0.26844665,-2.4133554,-0.6811504,8.985439
1740600251318560291,-0.084155895,0.21198763,0.26738137,-2.3798366,-0.6775591,8.962694
1740600251337747000,-0.13741912,0.2609898,0.27377295,-2.44448,-0.7134721,9.17099
1740600251349046625,-0.13528858,0.28442562,0.2790993,-2.4193408,-0.7469909,9.284714
1740600251358831417,-0.113983296,0.29614353,0.2876214,-2.3535004,-0.7493851,9.312247
1740600251368642833,-0.08735169,0.28655612,0.29827404,-2.2301989,-0.7493851,9.313444
1740600251378560791,-0.05965481,0.2609898,0.30466563,-2.0506337,-0.6967127,9.301474
1740600251389054083,-0.02876214,0.22370553,0.30040458,-1.8674773,-0.6607997,9.203311
1740600251398710875,0.011717909,0.16618125,0.26312032,-1.8076223,-0.6631939,9.121908
1740600251408625208,0.027696876,0.13422333,0.22903186,-1.8974048,-0.6512229,9.040505
1740600251419035000,0.035153728,0.11504856,0.20026971,-2.0350714,-0.6392518,8.98903
1740600251428735791,0.035153728,0.101200126,0.18322548,-2.1583729,-0.63087213,8.930372
1740600251438541750,0.02130529,0.084155895,0.18322548,-2.2625206,-0.60693014,8.950723
1740600251448859375,0.0031957934,0.0628506,0.1949434,-2.2481554,-0.63087213,8.943541
1740600251458361791,-0.018109497,0.039414786,0.20453078,-2.2290018,-0.60094464,8.967483
1740600251465456917,-0.024501082,0.02876214,0.20772657,-2.2038627,-0.59735334,8.998607
1740600251479003166,-0.035153728,0.010652645,0.19920446,-2.1428106,-0.5710171,9.068039
1740600251486141542,-0.036218993,0.00958738,0.1917476,-2.1152773,-0.5626374,9.083601
1740600251498627875,-0.029827405,0.014913702,0.16724652,-2.1559787,-0.5710171,9.118318
1740600251507887959,-0.033023197,0.02130529,0.1555286,-2.1871033,-0.60932434,9.040505
1740600251517632083,-0.040480047,0.024501082,0.14807177,-2.2002714,-0.6344634,9.0237465
1740600251527032334,-0.051132694,0.035153728,0.1438107,-2.2649148,-0.59735334,9.0429
1740600251537823458,-0.06178534,0.058589544,0.14274544,-2.3582888,-0.60333884,9.087193
1740600251546953000,-0.06178534,0.09054748,0.14274544,-2.4468741,-0.61770403,9.173384
1740600251558802500,-0.05539375,0.11717909,0.15126756,-2.480393,-0.63087213,9.251195
1740600251568617708,-0.037284255,0.13528858,0.16298546,-2.4672248,-0.6356605,9.279925
1740600251578502584,-0.02130529,0.14274544,0.17576863,-2.4061728,-0.6428431,9.272743
1740600251586009000,-0.014913702,0.14274544,0.17896444,-2.3582888,-0.6380547,9.24521
1740600251689060500,-0.09374327,-0.027696876,0.03089267,-2.4504654,-0.4417302,8.9279785
1740600251599420917,-0.0010652645,0.13635385,0.17150758,-2.2828712,-0.5398925,9.153033
1740600251608960375,0.0053263223,0.12676647,0.15126756,-2.2182279,-0.50278234,9.147048
1740600251618853375,0.00958738,0.111852765,0.12676647,-2.2349873,-0.48722005,9.118318
1740600251628485708,0.015978966,0.09161274,0.10652645,-2.2589293,-0.46447513,9.097966
1740600251638270916,0.02130529,0.07137272,0.084155895,-2.304419,-0.4357447,9.0429
1740600251648852041,0.017044231,0.049002163,0.068176925,-2.3439236,-0.39384618,8.941146
1740600251659076125,0.002130529,0.027696876,0.05752428,-2.3678656,-0.39624038,8.892065
1740600251665954333,-0.008522116,0.015978966,0.05006743,-2.3834279,-0.39624038,8.910022
1740600251672791792,-0.040480047,-0.002130529,0.039414786,-2.396596,-0.39743748,8.874108
1740600251697087875,-0.10865697,-0.03195793,0.029827405,-2.4600422,-0.44771573,8.993818
1740600251706014417,-0.128897,-0.03195793,0.024501082,-2.492364,-0.5303157,9.150639
1740600251719729750,-0.12676647,-0.022370555,0.023435818,-2.5761611,-0.5638345,9.301474
1740600251728345792,-0.08628642,-0.004261058,0.024501082,-2.5498247,-0.6356605,9.471462
1740600251739395583,-0.04580637,0.0053263223,0.02130529,-2.5450363,-0.61291564,9.487024
1740600251748616375,-0.0063915867,0.013848438,0.015978966,-2.493561,-0.58897364,9.433155
1740600251752254250,0.007456851,0.017044231,0.011717909,-2.4708161,-0.5770026,9.340978
1740600251766434500,0.015978966,0.018109497,0.007456851,-2.469619,-0.5446809,9.299079
1740600251778995791,0.03195793,0.017044231,-0.0063915867,-2.6084828,-0.48243165,9.17099
1740600251785603709,0.029827405,0.015978966,-0.007456851,-2.6240451,-0.48482585,9.173384
1740600251797900291,0.008522116,-0.0053263223,-0.0031957934,-2.6132712,-0.47764325,9.163807
1740600251804835291,-0.0010652645,-0.014913702,-0.0010652645,-2.6013002,-0.48123455,9.130288
1740600251819394459,-0.023435818,-0.049002163,-0.0031957934,-2.5031378,-0.45968673,9.1590185
1740600251828589458,-0.03089267,-0.07350325,-0.0127831735,-2.385822,-0.48003745,9.212888
1740600251838650959,-0.02876214,-0.096939065,-0.03195793,-2.2697031,-0.51595044,9.169792
1740600251849790458,-0.029827405,-0.10333065,-0.04261058,-2.2864625,-0.5231331,9.178172
1740600251854529584,-0.029827405,-0.10546118,-0.068176925,-2.3642743,-0.5315128,9.136273
1740600251869500000,-0.03089267,-0.07456851,-0.09161274,-2.565387,-0.5770026,9.180567
1740600251895998042,-0.025566347,-0.02130529,-0.08948222,-2.6384103,-0.60453594,9.148245
1740600251878179541,-0.03089267,-0.040480047,-0.09267801,-2.622848,-0.58298814,9.179369
1740600251878202750,-0.03089267,-0.040480047,-0.09267801,-2.622848,-0.58298814,9.179369
1740600251909730041,-0.024501082,0.03089267,-0.06924219,-2.633622,-0.664391,9.070433
1740600251918346042,-0.051132694,0.049002163,-0.058589544,-2.5833437,-0.7074866,9.1255
1740600251927913042,-0.06178534,0.05965481,-0.056459017,-2.5689783,-0.7625532,9.222465
1740600251937584208,-0.060720075,0.06391586,-0.060720075,-2.553416,-0.81163436,9.264363
1740600251947830375,-0.04580637,0.06498113,-0.0628506,-2.5318682,-0.8535329,9.352949
1740600251957119792,-0.023435818,0.06711166,-0.070307456,-2.565387,-0.8463503,9.404425
1740600251967554875,-0.0010652645,0.06391586,-0.07563378,-2.6084828,-0.8439561,9.399636
1740600251977614084,0.011717909,0.054328486,-0.0777643,-2.634819,-0.8295909,9.423578
1740600251987550833,0.014913702,0.036218993,-0.0777643,-2.6611552,-0.81761986,9.398438
1740600251997528166,0.022370555,0.007456851,-0.0777643,-2.64679,-0.82001406,9.400833
1740600252007545500,0.03195793,-0.02130529,-0.07456851,-2.6551697,-0.8283938,9.403227
1740600252018065709,0.043675844,-0.05006743,-0.07243799,-2.6743233,-0.81881696,9.397242
1740600252027995125,0.05539375,-0.07350325,-0.06924219,-2.6551697,-0.8403648,9.333796
1740600252037923458,0.05965481,-0.08841695,-0.066046394,-2.6192567,-0.8475474,9.266758
1740600252048018875,0.05219796,-0.099069595,-0.06498113,-2.6024973,-0.8451532,9.226056
1740600252057979500,0.04580637,-0.10226539,-0.06711166,-2.6276364,-0.8571242,9.242816
1740600252067979750,0.04474111,-0.09374327,-0.06391586,-2.6204538,-0.8475474,9.323022
1740600252076859333,0.05219796,-0.082025364,-0.058589544,-2.6036944,-0.8331822,9.356541
1740600252087278625,0.07137272,-0.06924219,-0.053263225,-2.5725696,-0.80924016,9.376891
1740600252098019375,0.09267801,-0.053263225,-0.051132694,-2.541445,-0.7338228,9.375694
1740600252107402791,0.10759171,-0.036218993,-0.053263225,-2.552219,-0.6967127,9.251195
1740600252118059375,0.10972224,-0.027696876,-0.053263225,-2.5222914,-0.58298814,9.209297
1740600252127407458,0.098004326,-0.026631612,-0.05219796,-2.4768016,-0.46806642,9.220071
1740600252138950083,0.07882957,-0.027696876,-0.051132694,-2.4552538,-0.38187516,9.179369
1740600252148920584,0.060720075,-0.03195793,-0.05219796,-2.397793,-0.33159694,9.156625
1740600252159432208,0.03834952,-0.039414786,-0.05752428,-2.3810337,-0.2801216,9.249998
1740600252169460917,0.018109497,-0.040480047,-0.06498113,-2.4313118,-0.19033903,9.176975
1740600252178547416,-0.004261058,-0.036218993,-0.07243799,-2.5258827,-0.14604631,9.112331
1740600252188470625,-0.018109497,-0.034088463,-0.07456851,-2.5821466,-0.1388637,9.076419
1740600252197881750,-0.06178534,-0.014913702,-0.06711166,-2.7281928,-0.11851298,9.148245
1740600252209112666,-0.08735169,-0.008522116,-0.051132694,-2.825158,-0.05626374,9.172187
1740600252218039084,-0.10439592,-0.0053263223,-0.03089267,-2.8538885,-0.031124622,9.27394
1740600252225647458,-0.111852765,-0.0063915867,-0.02130529,-2.8658595,0.0047884034,9.272743
1740600252238469750,-0.128897,-0.037284255,0.004261058,-2.8395233,-0.0047884034,9.263166
1740600252247399500,-0.13635385,-0.054328486,0.011717909,-2.8060043,-0.02873042,9.247604
1740600252258278958,-0.17470337,-0.13528858,0.022370555,-2.7006595,-0.108936176,9.281123
1740600252266743500,-0.19920446,-0.18642128,0.020240024,-2.5917234,-0.15322891,9.338584
1740600252276755166,-0.21837921,-0.2247708,0.011717909,-2.5558102,-0.21906945,9.446322
1740600252284758792,-0.22264028,-0.2396845,0.0053263223,-2.566584,-0.23822308,9.52174
1740600252297110250,-0.20453078,-0.26631612,-0.011717909,-2.6180596,-0.36152446,9.866506
1740600252306987125,-0.14913702,-0.27377295,-0.014913702,-2.5893292,-0.4297592,10.121488
1740600252316814042,-0.07350325,-0.2790993,-0.015978966,-2.5510218,-0.4213795,10.234015
1740600252326621666,0.011717909,-0.27803403,-0.02130529,-2.5067291,-0.37110126,10.213664
1740600252336399416,0.0777643,-0.27483824,-0.03089267,-2.4193408,-0.34356794,10.0987425
1740600252346966958,0.10759171,-0.28122982,-0.04580637,-2.3080103,-0.320823,9.980229
1740600252356640125,0.096939065,-0.29507825,-0.05752428,-2.2457612,-0.31124622,9.904813
1740600252367548458,0.06498113,-0.31318775,-0.05752428,-2.1751323,-0.3842694,9.953894
1740600252377068167,0.03195793,-0.3206446,-0.051132694,-2.1571758,-0.4285621,10.029311
1740600252387856375,0.018109497,-0.30360037,-0.04474111,-2.111686,-0.4405331,10.257957
1740600252397969666,0.03195793,-0.26738137,-0.04580637,-2.0171149,-0.40821138,10.329783
1740600252408324500,0.068176925,-0.21731395,-0.060720075,-1.910573,-0.37469256,10.38485
1740600252418117000,0.1107875,-0.16937704,-0.084155895,-1.7956513,-0.37349546,10.375273
1740600252427986791,0.15339808,-0.13741912,-0.10865697,-1.6998832,-0.36631286,10.336966
1740600252438113083,0.19068234,-0.113983296,-0.13528858,-1.6663644,-0.35434186,10.16578
1740600252448374125,0.22050974,-0.09374327,-0.15978967,-1.7310078,-0.34117374,10.079589
1740600252458385667,0.23861924,-0.07563378,-0.18002969,-1.8590976,-0.33518824,9.965864
1740600252468054166,0.2428803,-0.06391586,-0.19600865,-1.910573,-0.37828386,9.792285
1740600252478118250,0.2247708,-0.06498113,-0.20453078,-1.9883845,-0.3854665,9.750386
1740600252488109958,0.17896444,-0.07989483,-0.20240025,-2.1392193,-0.47524905,9.618706
1740600252498675834,0.1107875,-0.098004326,-0.18429075,-2.2625206,-0.5590461,9.594764
1740600252508941333,0.034088463,-0.11504856,-0.15339808,-2.255338,-0.6703765,9.683349
1740600252512779208,0.0010652645,-0.12463594,-0.13741912,-2.1871033,-0.7086837,9.762358
1740600252527975166,-0.049002163,-0.13209279,-0.111852765,-2.112883,-0.79846627,9.983821
1740600252539126500,-0.05752428,-0.111852765,-0.09374327,-1.9141643,-0.8367735,10.305841
1740600252549320583,-0.008522116,-0.07882957,-0.101200126,-1.8722657,-0.8283938,10.439917
1740600252557122417,0.02876214,-0.054328486,-0.1107875,-1.8495208,-0.79966336,10.423157
1740600252567986458,0.15659387,0.020240024,-0.1438107,-1.8423382,-0.7098808,10.398018
1740600252579722250,0.23755397,0.05219796,-0.15765914,-1.7705121,-0.6691794,10.286688
1740600252587851125,0.29614353,0.06178534,-0.16618125,-1.7070658,-0.6655881,10.0664215
1740600252598059833,0.3334278,0.056459017,-0.18109496,-1.6986861,-0.61890113,9.870096
1740600252608655833,0.34088463,0.046871636,-0.19813919,-1.6340426,-0.60094464,9.622296
1740600252618305875,0.33129725,0.034088463,-0.21731395,-1.6136919,-0.61770403,9.404425
1740600252627173625,0.2972088,0.01917476,-0.23542345,-1.6747441,-0.6560113,9.270349
1740600252638645000,0.2428803,0.008522116,-0.2428803,-1.5514427,-0.6548142,9.210494
1740600252648644084,0.18429075,-0.0053263223,-0.24607609,-1.5011644,-0.6452374,9.404425
1740600252652206250,0.16085494,-0.007456851,-0.24607609,-1.4915876,-0.6500258,9.458294
1740600252665993542,0.15126756,0.007456851,-0.2545982,-1.5095441,-0.6368576,9.574412
1740600252681670375,0.1949434,0.07882957,-0.2790993,-1.6567876,-0.59376204,9.688137
1740600252688248250,0.22050974,0.10972224,-0.28868666,-1.7226281,-0.60333884,9.744401
1740600252692582250,0.27696875,0.1736381,-0.3057309,-1.7717092,-0.62009823,9.635465
1740600252707919000,0.33768883,0.24394555,-0.3174488,-1.7417817,-0.533907,9.332599
1740600252718057791,0.34940675,0.2759035,-0.3174488,-1.7286136,-0.48961425,9.069236
1740600252728666000,0.3291667,0.3057309,-0.31638354,-1.7932571,-0.50278234,8.7951
1740600252732558958,0.3121225,0.32490566,-0.314253,-1.8662802,-0.51235914,8.632295
1740600252748759458,0.22903186,0.4048005,-0.29188246,-2.0973208,-0.49200845,8.371326
1740600252758942250,0.14594123,0.4612595,-0.26312032,-2.2661119,-0.50517654,8.273164
1740600252768800292,0.041545313,0.515588,-0.22370553,-2.4061728,-0.51116204,8.276755
1740600252772269833,-0.0127831735,0.5454154,-0.20026971,-2.6120741,-0.48602295,8.352173
1740600252788392875,-0.10546118,0.6061355,-0.14168017,-2.6168625,-0.47165772,8.526949
1740600252791301709,-0.13315806,0.6380934,-0.113983296,-2.6240451,-0.49919105,8.591593
1740600252853007250,-0.15233281,0.7392935,-0.013848438,-2.6515784,-0.5243302,8.117541
1740600252806899417,-0.16298546,0.69774824,-0.066046394,-2.574964,-0.45250413,8.772355
1740600252819132542,-0.16618125,0.77870834,-0.010652645,-2.3762453,-0.34237084,8.773552
1740600252829104042,-0.15126756,0.78723043,-0.008522116,-2.3810337,-0.33518824,8.555679
1740600252837707541,-0.14274544,0.7850999,-0.010652645,-2.4528596,-0.36032736,8.485051
1740600252846448875,-0.13635385,0.7765778,-0.014913702,-2.6599581,-0.47405192,8.190564
1740600252869127500,-0.20559604,0.60720074,-0.007456851,-2.825158,-0.6655881,8.040926
1740600252878313833,-0.26631612,0.48469532,0.004261058,-3.0418332,-0.6392518,7.9463553
1740600252878341042,-0.26631612,0.48469532,0.004261058,-3.0418332,-0.6392518,7.9463553
1740600252892470666,-0.36325517,0.23222765,0.026631612,-3.0298622,-0.58298814,8.110358
1740600252905581917,-0.41864893,0.033023197,0.035153728,-3.0083144,-0.61291564,8.409634
1740600252912235166,-0.45380265,-0.16724652,0.033023197,-2.9101522,-0.6572084,8.722076
1740600252930011917,-0.44421527,-0.43356264,-0.0063915867,-2.6372132,-0.7146692,9.077616
1740600252937874209,-0.37710363,-0.5613944,-0.05752428,-2.3822308,-0.7733272,9.355343
1740600252937880125,-0.37710363,-0.5613944,-0.05752428,-2.3822308,-0.7733272,9.355343
1740600252957805208,-0.15659387,-0.7286409,-0.18748654,-2.6743233,-0.8391677,9.446322
1740600252968182792,-0.10546118,-0.753142,-0.20559604,-2.7269957,-0.80564886,9.473856
1740600252977769916,0.015978966,-0.7797736,-0.2130529,-2.9364884,-1.0079589,9.483433
1740600252988913125,0.046871636,-0.77870834,-0.20026971,-2.9257145,-1.0115502,9.478644
1740600252998081458,0.10652645,-0.72437984,-0.13209279,-2.9628246,-1.0055647,9.167398
1740600253007911291,0.112918034,-0.63383234,-0.06711166,-2.991555,-0.9504981,9.060856
1740600253018777250,0.101200126,-0.5134575,-0.002130529,-2.9843724,-0.8607155,8.9519205
1740600253028665583,0.07882957,-0.3685815,0.05752428,-2.80361,-0.8726865,8.848969
1740600253037800583,0.06391586,-0.294013,0.07989483,-2.861071,-0.8822633,8.916007
1740600253048653916,0.029827405,-0.068176925,0.1470065,-2.7952304,-0.8822633,9.053674
1740600253055856584,0.01917476,-0.002130529,0.17150758,-2.8407204,-0.89782566,9.101558
1740600253063003042,0.0010652645,0.12996227,0.23222765,-3.064578,-0.9660604,9.165004
1740600253076990541,-0.01917476,0.36432046,0.3472762,-3.417723,-0.94092125,9.120711
1740600253077844833,-0.01917476,0.36432046,0.3472762,-3.417723,-0.94092125,9.120711
1740600253098024541,-0.041545313,0.77125144,0.51771855,-3.8642416,-0.8487445,9.020155
1740600253107340125,-0.05006743,0.88949585,0.5613944,-3.9360676,-0.81522566,9.018958
1740600253118222083,-0.07882957,1.2346416,0.69135666,-3.7110126,-0.70509243,8.870518
1740600253129465583,-0.09267801,1.3411679,0.72437984,-3.526659,-0.6751649,8.868123
1740600253138163458,-0.14594123,1.5787219,0.7680557,-3.2070332,-0.6512229,8.699332
1740600253168272709,-0.03195793,0.94808537,0.63915867,-3.1376014,-0.6655881,9.616311
1740600253138245666,-0.14594123,1.5787219,0.7680557,-3.2070332,-0.6512229,8.699332
1740600253156605875,-0.14913702,1.4753913,0.7233146,-3.4763808,-0.8774749,9.300277
1740600253178943791,0.07563378,0.5187838,0.5752428,-2.5629928,-0.5662287,9.421184
1740600253188120375,0.16724652,0.14168017,0.47510794,-1.9692309,-0.34476504,9.394848
1740600253198443334,0.2396845,-0.13102753,0.32597092,-1.5514427,-0.17836803,9.193734
1740600253208176250,0.2609898,-0.21837921,0.23435818,-1.4784195,-0.16519992,8.9363575
1740600253218142458,0.26312032,-0.3568636,-0.035153728,-1.7836803,-0.038307227,8.556877
1740600253227511083,0.24394555,-0.39521313,-0.10652645,-1.9835961,-0.11731588,8.520964
1740600253237910500,0.17576863,-0.5997439,-0.20879184,-2.7736826,-0.21547815,8.664616
1740600253265485208,0.06391586,-0.9832391,-0.08735169,-3.0597897,-0.12210429,8.98903
1740600253246384667,0.15233281,-0.68389976,-0.2066613,-2.942474,-0.25139117,8.719683
1740600253252320458,0.10226539,-0.8564726,-0.15765914,-2.9580362,-0.2657564,8.865729
1740600253277730500,0.054328486,-0.8213189,0.022370555,-2.8778305,-0.05626374,9.356541
1740600253288308541,0.07563378,-0.5763081,0.05965481,-2.6013002,0.010773907,9.502586
1740600253298437375,0.10972224,-0.3355583,0.053263225,-2.5390508,-0.020350715,9.548077
1740600253308874042,0.128897,-0.22796659,0.041545313,-2.5031378,0.027533319,9.537302
1740600253319863208,0.19068234,-0.026631612,0.0063915867,-2.0626047,0.1436521,9.427169
1740600253326526167,0.20772657,0.004261058,-0.0063915867,-2.0446482,0.1352724,9.334992
1740600253339692375,0.20985709,0.060720075,-0.058589544,-2.1440077,0.11611878,9.336189
1740600253347285000,0.18216023,0.09054748,-0.08948222,-2.31639,0.11611878,9.409213
1740600253357518625,0.16937704,0.0958738,-0.10439592,-2.6312277,0.077811554,9.458294
1740600253367610000,0.15978967,0.05006743,-0.10333065,-2.8886044,-0.031124622,9.188946
1740600253377800334,0.13848437,-0.043675844,-0.08628642,-3.1124623,-0.029927522,9.102755
1740600253387947375,0.10759171,-0.19813919,-0.049002163,-3.1747115,0.044292733,9.153033
1740600253398271458,0.07350325,-0.39627838,-0.0010652645,-2.9269116,0.08259996,8.968679
1740600253418478042,-0.03195793,-0.72437984,0.06924219,-2.645593,0.11851298,9.020155
1740600253408152666,0.027696876,-0.5933523,0.037284255,-2.7976246,0.06823475,8.801085
1740600253427740958,-0.056459017,-0.7669904,0.080960095,-2.4157495,0.15322891,9.212888
1740600253437955416,-0.07350325,-0.8681905,0.09374327,-1.8567034,0.033518825,9.585187
1740600253447879583,-0.039414786,-0.9139969,0.07243799,-1.8495208,-0.025139118,9.531317
1740600253457930792,0.0053263223,-0.9150622,0.018109497,-2.0961237,-0.04189853,9.307459
1740600253467888041,0.025566347,-0.87990844,-0.008522116,-2.1990743,-0.0047884034,9.396045
1740600253478516250,0.08522116,-0.6146576,-0.05539375,-3.9564183,-0.36990416,9.642648
1740600253488281875,0.128897,-0.30999196,0.020240024,-5.08289,-0.748188,9.576807
1740600253498673667,0.17150758,0.051132694,0.18109496,-5.910087,-0.7398083,9.689334
1740600253506325292,0.19920446,0.23755397,0.28122982,-5.7616463,-0.7026982,9.787497
1740600253518415417,0.28868666,0.7819041,0.5475459,-4.8817773,-0.7134721,9.728839
1740600253528859166,0.3291667,1.0950918,0.664725,-3.9492357,-0.5363012,9.574412
1740600253538421625,0.36325517,1.3677995,0.72651035,-3.1124623,-0.35075054,9.3026705
1740600253544181458,0.37071204,1.4849787,0.7339672,-2.718616,-0.25498247,9.129091
1740600253553565834,0.36964676,1.6671388,0.7041398,-1.8351556,0.077811554,8.933964
1740600253568264959,0.3536678,1.7630126,0.6103965,-0.88944596,0.32202014,9.039309
1740600253575302375,0.33981937,1.7640779,0.4708469,-0.29807812,0.40701428,9.077616
1740600253586239208,0.31638354,1.700162,0.29933932,-0.34955344,0.45489833,8.905233
1740600253598406459,0.25672874,1.562743,0.07456851,-1.1384429,0.7182605,8.607155
1740600253608757333,0.20453078,1.4370418,-0.022370555,-1.6879122,0.8511387,8.42759
1740600253618329959,0.13954964,1.2559468,-0.08628642,-2.5941176,0.6548142,8.261193
1740600253626191125,0.112918034,1.1494204,-0.10226539,-2.767697,0.58777654,8.186973
1740600253632300209,0.066046394,0.7978831,-0.11611383,-3.8295257,0.7625532,8.374918
1740600253645955125,0.06498113,0.68389976,-0.111852765,-3.9504328,0.7553706,8.268375
1740600253658686750,0.04580637,0.314253,-0.07882957,-4.280833,0.60812724,8.1881695
1740600253665346791,0.029827405,0.17257284,-0.06498113,-4.2425256,0.61171854,8.189367
1740600253673920375,-0.0053263223,-0.11930962,-0.027696876,-4.361038,0.51475334,8.076839
1740600253688119542,-0.03834952,-0.4165184,0.015978966,-4.1623197,0.5710171,7.9463553
1740600253696369042,-0.07243799,-0.69668293,0.033023197,-3.846285,0.6476316,8.161834
1740600253778521333,0.05006743,-0.18109496,0.007456851,-3.810372,0.20949265,8.820239
1740600253702304208,-0.11717909,-0.92784536,0.020240024,-3.2237926,0.60214174,8.269572
1740600253717411916,-0.19600865,-1.0727214,-0.03089267,-2.8275523,0.62967503,8.683769
1740600253727438625,-0.20026971,-1.0428939,-0.0479369,-2.8682537,0.6584055,8.968679
1740600253730448459,-0.18748654,-0.9768475,-0.06391586,-2.9364884,0.6584055,9.165004
1740600253745990208,-0.07669904,-0.6625945,-0.098004326,-3.108871,0.58777654,8.929175
1740600253759241042,0.004261058,-0.29827404,-0.07350325,-3.6176388,0.44532153,8.935161
1740600253768151625,0.03089267,-0.20879184,-0.034088463,-3.807978,0.30885202,8.966286
1740600253788757291,0.066046394,-0.15126756,0.05006743,-3.8163576,0.2825158,8.773552
1740600253798473417,0.07243799,-0.099069595,0.084155895,-4.000711,0.36032736,8.717288
1740600253804889833,0.07563378,-0.060720075,0.09161274,-4.0222588,0.3842694,8.6095495
1740600253819053000,0.05219796,0.05539375,0.10972224,-3.8714242,0.5482722,8.401254
1740600253828669792,0.020240024,0.08735169,0.111852765,-3.3746274,0.6943185,8.574833
1740600253838678291,0.004261058,0.058589544,0.10226539,-2.707842,0.6739678,8.91481
1740600253848663833,0.002130529,-0.025566347,0.070307456,-2.3092074,0.5506664,9.068039
1740600253879096208,-0.0063915867,-0.4910869,-0.07882957,-2.067393,0.46327803,9.106346
1740600253858583333,-0.004261058,-0.15233281,0.02130529,-2.1392193,0.59735334,9.260772
1740600253868290625,-0.0053263223,-0.31851408,-0.027696876,-2.042254,0.557849,9.279925
1740600253886230250,-0.011717909,-0.5635249,-0.101200126,-2.1272483,0.4429273,9.054871
1740600253898561708,-0.02130529,-0.6924219,-0.17576863,-2.2780828,0.51116204,9.203311
1740600253906328500,-0.02130529,-0.7094661,-0.19920446,-2.4396915,0.51954174,9.25359
1740600253912519083,-0.025566347,-0.72011876,-0.23755397,-2.7820623,0.44651863,9.358934
1740600253928631250,-0.03089267,-0.72011876,-0.25566345,-3.2130187,0.4381389,9.574412
1740600253938679000,-0.039414786,-0.757403,-0.23861924,-3.1890767,0.3842694,9.504981
1740600253948258041,-0.040480047,-0.7797736,-0.2034655,-3.2261868,0.51714754,9.506178
1740600253958596709,-0.036218993,-0.7595336,-0.16831179,-3.083732,0.45609543,9.376891
1740600253968508750,-0.049002163,-0.72651035,-0.13422333,-2.873042,0.48961425,9.344569
1740600253978422042,-0.060720075,-0.66365975,-0.10013486,-2.9508536,0.48482585,9.329007
1740600253988789792,-0.05752428,-0.58696073,-0.0628506,-2.8862102,0.39504328,9.382876
1740600253998223000,-0.03834952,-0.5251754,-0.01917476,-2.6910827,0.34955344,9.487024
1740600254004232208,-0.026631612,-0.50813115,-0.0010652645,-2.5677812,0.39025488,9.431957
1740600254013189667,-0.015978966,-0.49321744,0.027696876,-2.457648,0.427365,9.208099
1740600254027608500,-0.04474111,-0.47510794,0.0479369,-2.3762453,0.36631286,8.726865
1740600254038885000,-0.15126756,-0.43036684,0.066046394,-2.3822308,0.50876784,8.366538
1740600254048879875,-0.19068234,-0.4261058,0.0777643,-2.4133554,0.5710171,8.350976
1740600254058420667,-0.2876214,-0.44315,0.12676647,-2.7497406,0.4261679,8.562862
1740600254068107708,-0.31638354,-0.4676511,0.16085494,-3.004723,0.30885202,9.001001
1740600254078489500,-0.29507825,-0.479369,0.18855181,-3.1256304,0.22864626,9.467871
1740600254088113250,-0.24181503,-0.46978164,0.20879184,-3.1316159,0.09696517,9.680955
1740600254098508166,-0.18642128,-0.42184472,0.21518342,-2.9783869,-0.12090719,9.752781
1740600254108979250,-0.13635385,-0.34408042,0.2130529,-2.8538885,-0.39025488,10.077195
1740600254118991792,-0.10759171,-0.294013,0.20985709,-2.6850972,-0.46088383,10.33098
1740600254126082708,-0.035153728,-0.18002969,0.20026971,-2.3439236,-0.5662287,10.702082
1740600254138724041,0.094808534,-0.041545313,0.18748654,-1.9249382,-0.58538234,10.748769
1740600254148713208,0.18109496,0.025566347,0.18109496,-1.7705121,-0.45130703,10.466252
1740600254158018167,0.24927188,0.084155895,0.17044231,-1.6184803,-0.20231004,9.953894
1740600254168868292,0.28122982,0.13635385,0.1470065,-1.4772224,0.029927522,9.629479
1740600254178418459,0.27483824,0.16192019,0.1107875,-1.4209588,0.20350714,9.49301
1740600254187832292,0.26312032,0.14274544,0.07882957,-1.352724,0.29807812,9.448717
1740600254197932041,0.24607609,0.08841695,0.060720075,-1.4532804,0.2896984,9.349358
1740600254207839333,0.21944448,0.053263225,0.060720075,-1.5574282,0.31603462,9.235633
1740600254217897209,0.18748654,0.06498113,0.07137272,-1.4305356,0.23463176,9.120711
1740600254227982833,0.13741912,0.09054748,0.0777643,-1.4293385,0.427365,9.455899
1740600254238135417,0.10759171,0.12357068,0.06924219,-1.5849615,0.4321534,9.8916445
1740600254245735459,0.10333065,0.13848437,0.058589544,-1.6543933,0.4225766,9.929952
1740600254255699542,0.101200126,0.13102753,0.022370555,-1.8327614,0.44532153,9.718064
1740600254267741750,0.096939065,0.070307456,-0.015978966,-2.0147207,0.5662287,9.238028
1740600254277932583,0.0479369,-0.1107875,-0.027696876,-1.9476831,0.7565677,8.525752
1740600254287934875,-0.034088463,-0.27696875,-0.00958738,-1.9883845,0.59256494,8.252813
1740600254297997334,-0.14168017,-0.40906155,0.0010652645,-1.7717092,0.52073884,8.461109
1740600254307837834,-0.24394555,-0.46658584,-0.00958738,-1.8471266,0.34476504,8.637083
1740600254312511083,-0.28655612,-0.46978164,-0.024501082,-1.7788919,0.25139117,8.723274
1740600254328846125,-0.4261058,-0.42290998,-0.05539375,-2.3020248,0.09935937,8.477868
1740600254338281834,-0.56245965,-0.3153183,-0.09374327,-2.018312,0.15083471,8.145074
1740600254338470417,-0.56245965,-0.3153183,-0.09374327,-2.018312,0.15083471,8.145074
1740600254359087750,-0.9491506,-0.2247708,-0.16618125,-1.5969325,-0.035913024,8.400057
1740600254367273292,-1.0066749,-0.2609898,-0.165116,-1.6699557,0.055066638,8.744822
1740600254383616792,-0.98430437,-0.46339005,-0.07137272,-2.6839,0.272939,11.020511
1740600254378370875,-1.026915,-0.42184472,-0.10865697,-2.3942018,0.4225766,10.536881
1740600254397867000,-0.74461985,-0.43888897,0.058589544,-2.753332,0.3890578,11.19409
1740600254407607000,-0.6359629,-0.40373522,0.10013486,-2.6539726,0.4141969,11.423933
1740600254412264375,-0.3834952,-0.36964676,0.15978967,-2.2577322,0.50397944,11.536461
1740600254426213541,-0.12676647,-0.40586576,0.18002969,-1.5263035,0.5710171,11.281479
1740600254437941125,0.18322548,-0.52837116,0.14807177,-0.89662856,0.36870706,10.55843
1740600254447336083,0.24927188,-0.5603291,0.12676647,-0.81163436,0.2621651,10.429143
1740600254458129750,0.34940675,-0.5784386,0.035153728,-1.1001357,0.11133038,10.119094
1740600254458201959,0.34940675,-0.5784386,0.035153728,-1.1001357,0.11133038,10.119094
1740600254477465583,0.4133226,-0.23861924,-0.12463594,-1.0749966,0.07062895,10.394426
1740600254488734334,0.45593318,-0.13315806,-0.17576863,-0.9816227,0.07182605,10.529699
1740600254497751292,0.6221144,0.09161274,-0.31851408,-0.6584055,0.1436521,10.414778
1740600254507906959,0.73290193,0.15233281,-0.39627838,-0.58897364,0.12928689,10.072407
1740600254516490625,0.78083885,0.15978967,-0.42290998,-0.6428431,0.08738836,9.922769
1740600254528471875,0.86179894,0.1107875,-0.4676511,-0.93134445,-0.077811554,9.329007
1740600254538033708,0.84581995,0.043675844,-0.45060685,-1.067814,-0.08379706,8.84059
1740600254548023625,0.773382,-0.029827405,-0.40053943,-1.3611037,0.015562311,8.641871
1740600254557780542,0.6743124,-0.058589544,-0.3270362,-1.5562311,0.047884032,8.439561
1740600254564915375,0.61891866,-0.0479369,-0.28655612,-1.5729905,0.051475335,8.305486
1740600254578057292,0.43036684,0.011717909,-0.17257284,-1.4053963,0.074220255,8.0684595
1740600254588702791,0.36432046,0.025566347,-0.14061491,-1.3371617,0.05865794,7.98586
1740600254598816625,0.16405073,0.036218993,-0.06924219,-0.9768343,0.050278235,7.824251
1740600254608037333,0.036218993,0.007456851,-0.043675844,-0.8463503,0.095768064,7.86615
1740600254618309250,-0.070307456,-0.037284255,-0.035153728,-0.7673417,0.17477672,8.020576
1740600254627379000,-0.14913702,-0.084155895,-0.035153728,-0.7338228,0.22146365,8.258799
1740600254638382666,-0.1949434,-0.10333065,-0.03834952,-0.94211835,0.3172317,8.485051
1740600254648787750,-0.20879184,-0.08841695,-0.04580637,-1.0941502,0.4141969,8.597578
1740600254658997834,-0.19813919,-0.060720075,-0.05219796,-1.1528081,0.50517654,8.701726
1740600254669045000,-0.18642128,-0.056459017,-0.05752428,-1.1623849,0.51116204,8.711303
1740600254678932542,-0.12144015,-0.07989483,-0.07137272,-0.9840169,0.5781997,8.696938
1740600254689083458,-0.06178534,-0.1107875,-0.08522116,-0.82240826,0.62488663,8.706514
1740600254698296500,0.0127831735,-0.165116,-0.0958738,-0.5267244,0.59855044,8.698134
1740600254708814958,0.05006743,-0.20453078,-0.10226539,-0.48243165,0.5446809,8.66701
1740600254718428292,0.111852765,-0.33981937,-0.12037488,-0.58298814,0.40940848,8.471883
1740600254718533542,0.111852765,-0.33981937,-0.12037488,-0.58298814,0.40940848,8.471883
1740600254738503416,0.0777643,-0.39627838,-0.13102753,-0.5422867,0.24660277,8.550891
1740600254748960000,0.046871636,-0.4079963,-0.13315806,-0.39145198,0.16998832,8.807071
1740600254752249625,0.02876214,-0.41864893,-0.128897,-0.33279404,0.15682021,9.072827
1740600254769455708,-0.03195793,-0.43249738,-0.101200126,-0.37708676,0.21787235,9.144653
1740600254778954042,-0.09054748,-0.4101268,-0.068176925,-0.35553896,0.28491,9.16261
1740600254789271000,-0.15233281,-0.35260254,-0.033023197,-0.29807812,0.25258827,9.330204
1740600254792988708,-0.18109496,-0.31851408,-0.017044231,-0.23822308,0.19273324,9.41041
1740600254805944000,-0.21944448,-0.25672874,0.0053263223,-0.029927522,0.15562311,9.594764
1740600254818540041,-0.20772657,-0.18855181,0.024501082,0.24779987,0.21188685,9.836577
1740600254824864958,-0.18109496,-0.17470337,0.027696876,0.33039984,0.21188685,9.88925
1740600254837742292,-0.054328486,-0.1587244,0.025566347,0.39264908,0.20350714,9.909601
1740600254848431000,0.04580637,-0.16618125,0.027696876,0.34955344,0.14844051,9.894038
1740600254851921875,0.08841695,-0.17257284,0.03089267,0.30286652,0.16400282,9.874885
1740600254869735958,0.15765914,-0.1949434,0.046871636,0.1328782,0.20470424,9.652225
1740600254878508542,0.19068234,-0.21411815,0.10013486,0.0,0.4177882,9.391256
1740600254889220166,0.18535602,-0.21198763,0.12357068,-0.061052144,0.50158525,9.436746
1740600254898450625,0.15339808,-0.17044231,0.18535602,0.06464344,0.6715736,9.351752
1740600254898374750,0.15339808,-0.17044231,0.18535602,0.06464344,0.6715736,9.351752
1740600254918096625,0.11504856,-0.09161274,0.20879184,0.45250413,0.7110779,9.507375
1740600254928766333,0.10439592,-0.07989483,0.20453078,0.49799395,0.736217,9.417592
1740600254937727541,0.06498113,-0.07350325,0.18429075,0.6392518,0.92535895,9.339781
1740600254948953291,0.02130529,-0.101200126,0.1768339,0.60094464,1.0845734,9.166202
1740600254992627292,-0.23435818,-0.13209279,0.09054748,0.7577648,1.2485762,9.408015
1740600254958635667,-0.035153728,-0.13528858,0.17470337,0.5530606,1.186327,9.062054
1740600254958741750,-0.035153728,-0.13528858,0.17470337,0.5530606,1.186327,9.062054
1740600254978545000,-0.1587244,-0.17044231,0.15339808,0.5351041,1.3682863,9.174581
1740600254988434500,-0.21198763,-0.15233281,0.11504856,0.6907272,1.3299791,9.293094
1740600255008356375,-0.26844665,-0.0777643,0.025566347,0.7445967,1.0893618,9.672575
1740600255017837833,-0.28975195,0.0063915867,-0.08522116,0.60094464,0.81402856,9.871294
1740600255018395625,-0.28975195,0.0063915867,-0.08522116,0.60094464,0.81402856,9.871294
1740600255035363875,-0.2695119,0.080960095,-0.18109496,0.11252748,0.6967127,9.975441
1740600255048077291,-0.24714136,0.1107875,-0.21944448,-0.2885013,0.59256494,9.931149
1740600255058390875,-0.18855181,0.1438107,-0.23542345,-0.7433996,0.35194764,9.872491
1740600255068032875,-0.15126756,0.1470065,-0.22370553,-1.009156,0.17836803,9.799467
1740600255077849208,-0.12463594,0.15126756,-0.1949434,-1.1923125,0.05626374,9.767146
1740600255087861000,-0.10759171,0.165116,-0.15339808,-1.283292,-0.044292733,9.788693
1740600255096134708,-0.101200126,0.17150758,-0.13209279,-1.2785037,-0.08259996,9.768343
1740600255107626375,-0.08628642,0.18748654,-0.06924219,-1.0390835,-0.22026655,9.844957
1740600255118098875,-0.07137272,0.18642128,-0.043675844,-0.7326257,-0.37708676,9.865308
1740600255128569167,-0.060720075,0.1768339,-0.035153728,-0.60333884,-0.4441244,9.937134
1740600255132772333,-0.036218993,0.14061491,-0.026631612,-0.5303157,-0.5398925,10.029311
1740600255148742292,0.0063915867,0.07989483,-0.020240024,-0.5231331,-0.521936,10.031705
1740600255159267875,0.034088463,0.053263225,-0.007456851,-0.6715736,-0.45968673,10.09994
1740600255168112542,0.056459017,0.039414786,0.004261058,-0.7649474,-0.4441244,10.144233
1740600255172578958,0.06498113,0.03834952,0.0063915867,-0.7625532,-0.4405331,10.121488
1740600255186908000,0.07456851,0.053263225,0.00958738,-0.6715736,-0.46567222,10.077195
1740600255197982334,0.06391586,0.10652645,-0.008522116,-0.6368576,-0.5327099,10.102334
1740600255207506875,0.060720075,0.1257012,-0.018109497,-0.6955156,-0.5327099,10.073604
1740600255217936209,0.049002163,0.16937704,-0.0479369,-0.8643068,-0.37948096,9.878476
1740600255226891167,0.04261058,0.17789917,-0.053263225,-0.89902276,-0.33758244,9.817424
1740600255232080084,0.026631612,0.18535602,-0.066046394,-1.0259154,-0.2681506,9.598354
1740600255248534791,0.0053263223,0.18855181,-0.08735169,-0.9876082,-0.24899697,9.417592
1740600255257963625,0.004261058,0.17896444,-0.111852765,-0.92416185,-0.21188685,9.472659
1740600255268698792,0.026631612,0.14274544,-0.13848437,-0.9504981,-0.15083471,9.515755
1740600255272692875,0.039414786,0.11930962,-0.15233281,-0.9744401,-0.15322891,9.51336
1740600255288632583,0.08522116,0.046871636,-0.19281286,-1.13964,-0.10534488,9.398438
1740600255298394584,0.099069595,0.014913702,-0.21624869,-1.2808979,-0.09696517,9.285912
1740600255308084792,0.101200126,0.007456851,-0.22370553,-1.2808979,-0.110133275,9.313444
1740600255318746334,0.10013486,0.013848438,-0.24607609,-1.3802572,-0.15203181,9.355343
1740600255328461625,0.0958738,0.020240024,-0.25246766,-1.353921,-0.16280572,9.361329
1740600255338908500,0.101200126,0.037284255,-0.24820662,-1.4616601,-0.053869538,9.662998
1740600255347464458,0.10865697,0.034088463,-0.2396845,-1.4676456,0.047884032,9.692925
1740600255358749750,0.13954964,-0.0010652645,-0.19281286,-1.5753847,0.18914193,9.603143
1740600255367061416,0.15339808,-0.010652645,-0.17257284,-1.6124948,0.18914193,9.53012
1740600255378555334,0.19813919,-0.036218993,-0.11824436,-1.6867151,0.2861071,9.405622
1740600255408639083,0.2428803,-0.083090626,-0.07456851,-1.3132197,0.34596214,9.343372
1740600255388704708,0.221575,-0.05752428,-0.09161274,-1.555034,0.36870706,9.333796
1740600255397913000,0.23755397,-0.07137272,-0.07563378,-1.4257472,0.39264908,9.308656
1740600255411576500,0.2428803,-0.08735169,-0.07989483,-1.2306197,0.33159694,9.3182335
1740600255458177166,0.068176925,-0.034088463,-0.16724652,-1.6160861,0.40462008,9.03452
1740600255428107875,0.21092236,-0.082025364,-0.10652645,-1.3503298,0.20111294,9.26556
1740600255438097583,0.16618125,-0.05752428,-0.13209279,-1.4616601,0.19991584,9.15423
1740600255448926167,0.14274544,-0.04474111,-0.14487597,-1.5167267,0.21547815,9.095572
1740600255468152000,0.04261058,-0.039414786,-0.16724652,-1.5574282,0.46088383,8.954314
1740600255472642084,-0.0031957934,-0.066046394,-0.17044231,-1.3838485,0.40462008,8.913613
1740600255488604417,-0.070307456,-0.13422333,-0.18642128,-1.3036429,0.092176765,8.880095
1740600255498486875,-0.12250541,-0.17896444,-0.20453078,-1.5598224,0.01436521,8.99741
1740600255498466541,-0.12250541,-0.17896444,-0.20453078,-1.5598224,0.01436521,8.99741
1740600255518457250,-0.23861924,-0.14274544,-0.2130529,-1.7034745,0.074220255,9.052477
1740600255528348459,-0.26205507,-0.12144015,-0.21198763,-1.7046716,0.038307227,9.209297
1740600255535859916,-0.28868666,-0.08522116,-0.21411815,-1.6639702,-0.06823475,9.470264
1740600255540636375,-0.2908172,-0.07243799,-0.21837921,-1.6603789,-0.12689269,9.557653
1740600255550414041,-0.28549087,-0.0628506,-0.221575,-1.6244658,-0.15203181,9.639056
1740600255550469500,-0.28549087,-0.0628506,-0.221575,-1.6244658,-0.15203181,9.639056
1740600255550504875,-0.28549087,-0.0628506,-0.221575,-1.6244658,-0.15203181,9.639056
1740600255587198084,-0.02876214,0.036218993,-0.22583607,-1.8674773,-0.1376666,9.865308
1740600255597688167,0.04580637,0.027696876,-0.21198763,-1.7705121,-0.11851298,9.692925
1740600255606057583,0.111852765,0.013848438,-0.20559604,-1.6280571,-0.20709845,9.628283
1740600255616558250,0.16085494,0.0010652645,-0.21411815,-1.5298948,-0.32920274,9.551667
1740600255627053000,0.1917476,-0.014913702,-0.23542345,-1.4867992,-0.37110126,9.417592
1740600255637678875,0.20240025,-0.025566347,-0.2545982,-1.447295,-0.35314476,9.399636
1740600255647554375,0.19813919,-0.025566347,-0.26738137,-1.4149733,-0.2908955,9.441534
1740600255658566541,0.18322548,-0.01917476,-0.2695119,-1.340753,-0.36272156,9.506178
1740600255666394291,0.17257284,-0.014913702,-0.26844665,-1.3814543,-0.4189853,9.544485
1740600255677942666,0.13422333,-0.0031957934,-0.24394555,-1.4772224,-0.46208093,9.5385
1740600255682959791,0.12250541,-0.002130529,-0.23116238,-1.4999673,-0.44532153,9.5385
1740600255698009750,0.098004326,-0.023435818,-0.17044231,-1.5658079,-0.32561144,9.476251
1740600255707839542,0.07882957,-0.05219796,-0.12037488,-1.6160861,-0.15203181,9.537302
1740600255718057791,0.053263225,-0.054328486,-0.070307456,-1.567005,-0.093373865,9.55885
1740600255728579375,0.022370555,-0.025566347,-0.034088463,-1.4030021,-0.12689269,9.662998
1740600255738648291,-0.0127831735,0.014913702,-0.01917476,-1.3156139,-0.16639702,9.805453
1740600255748587500,-0.036218993,0.058589544,-0.017044231,-1.2294226,-0.130484,9.878476
1740600255756111083,-0.040480047,0.0777643,-0.015978966,-1.2282255,-0.08140286,9.961076
1740600255769885458,-0.03834952,0.094808534,-0.008522116,-1.2892777,0.12569559,9.907207
1740600255777805125,-0.008522116,0.07563378,0.017044231,-1.3503298,0.37948096,9.64145
1740600255777907000,-0.008522116,0.07563378,0.017044231,-1.3503298,0.37948096,9.64145
1740600255798727291,0.03089267,-0.013848438,0.040480047,-1.163582,0.32680854,9.217676
1740600255808282208,0.033023197,-0.070307456,0.029827405,-1.13964,0.19632454,9.050082
1740600255818613125,0.026631612,-0.10759171,0.010652645,-1.2785037,0.14724341,8.977059
1740600255827896958,0.00958738,-0.12250541,-0.004261058,-1.4951789,0.20111294,9.015367
1740600255839097250,-0.010652645,-0.112918034,-0.008522116,-1.5957354,0.30645782,9.08001
1740600255848492958,-0.02876214,-0.07243799,-0.0010652645,-1.5753847,0.36750996,9.180567
1740600255859727375,-0.035153728,-0.017044231,0.002130529,-1.3958195,0.33159694,9.212888
1740600255867916125,-0.03089267,0.0063915867,-0.002130529,-1.2665327,0.30166942,9.218874
1740600255875175208,-0.013848438,0.029827405,-0.024501082,-1.0319009,0.24420857,9.314642
1740600255887763041,0.015978966,0.02130529,-0.05219796,-0.79966336,0.2765303,9.349358
1740600255897934083,0.07882957,-0.034088463,-0.08948222,-0.80086046,0.2896984,9.379285
1740600255908962500,0.13102753,-0.07989483,-0.10546118,-1.0259154,0.2765303,9.368511
1740600255915931750,0.15659387,-0.10013486,-0.10972224,-1.1168951,0.2789245,9.343372
1740600255925987542,0.1949434,-0.128897,-0.10759171,-1.2593501,0.2633622,9.198523
1740600255938588959,0.21731395,-0.16298546,-0.08735169,-1.3503298,0.22026655,9.012972
1740600255948111542,0.21731395,-0.17576863,-0.07882957,-1.3311762,0.24540567,8.937555
1740600255968401792,0.11717909,-0.24501082,-0.018109497,-1.1192893,0.08259996,8.767567
1740600255957192292,0.1949434,-0.2066613,-0.05219796,-1.2210429,0.22146365,8.815451
1740600255978463167,0.040480047,-0.25353295,-0.0053263223,-1.2114661,-0.029927522,8.765172
1740600256018380083,-0.26844665,-0.11611383,0.0010652645,-1.5167267,-0.08499416,9.227253
1740600255989173708,-0.0053263223,-0.25033715,-0.004261058,-1.2509704,-0.053869538,8.807071
1740600255997554875,-0.14061491,-0.21198763,-0.004261058,-1.3311762,-0.15801731,8.882488
1740600256008937250,-0.21837921,-0.16724652,-0.004261058,-1.471237,-0.1316811,9.078813
1740600256026406041,-0.28122982,-0.09161274,0.0063915867,-1.5035586,-0.092176765,9.314642
1740600256038721750,-0.26844665,-0.0479369,0.025566347,-1.4808137,-0.033518825,9.635465
1740600256046267208,-0.24820662,-0.04580637,0.033023197,-1.4413095,0.0023942017,9.660604
1740600256052489708,-0.1949434,-0.060720075,0.051132694,-1.3239936,0.03232172,9.704897
1740600256065024250,-0.1257012,-0.09054748,0.068176925,-1.3120226,0.059855044,9.837775
1740600256073237542,-0.053263225,-0.11717909,0.082025364,-1.3275849,0.0047884034,9.78989
1740600256088169958,0.013848438,-0.12676647,0.08841695,-1.3096284,-0.09935937,9.701305
1740600256098561334,0.07882957,-0.11717909,0.083090626,-1.2366052,-0.16519992,9.604341
1740600256107618208,0.098004326,-0.096939065,0.07989483,-1.1779473,-0.18794483,9.514558
1740600256116565000,0.10333065,-0.084155895,0.0777643,-1.1384429,-0.18435353,9.460688
1740600256127714625,0.099069595,-0.054328486,0.07243799,-1.0079589,-0.2669535,9.309854
1740600256138553166,0.082025364,-0.034088463,0.07137272,-0.9923966,-0.36870706,9.374496
1740600256148755375,0.05965481,-0.011717909,0.07456851,-1.0905589,-0.39384618,9.490616
1740600256158315375,0.040480047,0.007456851,0.084155895,-1.1911154,-0.30885202,9.605537
1740600256177298250,0.027696876,0.02130529,0.10652645,-1.3012487,-0.25378537,9.643845
1740600256177347583,0.027696876,0.02130529,0.10652645,-1.3012487,-0.25378537,9.643845
1740600256185538041,0.029827405,0.015978966,0.16192019,-1.2354081,-0.1316811,9.624691
1740600256197646208,0.046871636,-0.02876214,0.21198763,-1.1611878,-0.053869538,9.634268
1740600256205715166,0.051132694,-0.04580637,0.22690132,-1.0929531,-0.029927522,9.635465
1740600256217353292,0.056459017,-0.083090626,0.24181503,-0.93852705,-0.05626374,9.671378
1740600256228402625,0.04261058,-0.09267801,0.23648871,-0.93373865,-0.05267244,9.752781
1740600256236197875,0.02876214,-0.07882957,0.22264028,-0.8882488,-0.049081136,9.847352
1740600256247573667,0.018109497,-0.060720075,0.21198763,-0.92296475,-0.04189853,9.967062
1740600256256644583,0.014913702,-0.04261058,0.20879184,-1.0103531,0.005985504,10.056845
1740600256266625541,0.014913702,-0.018109497,0.21624869,-1.1324574,0.075417355,10.024523
1740600256276621250,0.014913702,0.013848438,0.23435818,-1.1216835,0.110133275,9.913192
1740600256286658292,0.011717909,0.034088463,0.2514024,-1.1145009,0.12210429,9.873688
1740600256298190084,0.013848438,0.0479369,0.2609898,-1.0283096,0.19871874,9.890448
1740600256312266000,0.043675844,0.06391586,0.2609898,-0.92535895,0.272939,9.988609
1740600256308351042,0.02876214,0.05752428,0.26418558,-0.9720459,0.2645593,9.94312
1740600256325562667,0.07989483,0.0777643,0.24927188,-0.92057055,0.30406362,10.060435
1740600256330124208,0.10439592,0.08628642,0.24074976,-0.93014735,0.31364042,10.053253
1740600256345552041,0.16618125,0.10546118,0.21411815,-0.92895025,0.3854665,9.855731
1740600256355477750,0.19920446,0.10972224,0.19813919,-0.9816227,0.39025488,9.721656
1740600256366731583,0.21624869,0.10865697,0.18535602,-1.0307038,0.40581718,9.556456
1740600256377879291,0.20453078,0.11824436,0.16937704,-1.0785879,0.35793316,9.26556
1740600256388566458,0.1917476,0.12250541,0.165116,-1.0642227,0.34476504,9.221268
1740600256392418000,0.15765914,0.12250541,0.15233281,-1.0366893,0.32561144,9.107543
1740600256407445667,0.10439592,0.10226539,0.13741912,-1.0187328,0.2885013,9.009381
1740600256417940416,0.07563378,0.07882957,0.12676647,-1.0486604,0.2825158,9.006987
1740600256428220750,0.05006743,0.058589544,0.12037488,-1.1264719,0.2645593,9.053674
1740600256432506167,0.040480047,0.0479369,0.11824436,-1.1839328,0.2693477,9.088389
1740600256447546792,0.027696876,0.024501082,0.113983296,-1.210269,0.2669535,9.25359
1740600256458013208,0.020240024,0.015978966,0.112918034,-1.2605472,0.22984336,9.3182335
1740600256469385834,0.0127831735,0.015978966,0.111852765,-1.3120226,0.20470424,9.331401
1740600256478441875,-0.017044231,0.039414786,0.11717909,-1.3311762,0.19393034,9.317036
1740600256478395500,-0.017044231,0.039414786,0.11717909,-1.3311762,0.19393034,9.317036
1740600256498303959,-0.06178534,0.0479369,0.13528858,-1.2964603,0.320823,9.313444
1740600256508776875,-0.06711166,0.040480047,0.14168017,-1.2653356,0.29807812,9.294291
1740600256518013334,-0.07882957,0.01917476,0.1555286,-1.246182,0.22266077,9.397242
1740600256527908416,-0.07989483,0.017044231,0.1555286,-1.3156139,0.22625206,9.452309
1740600256538293541,-0.0777643,0.033023197,0.15446335,-1.3718776,0.24420857,9.536105
1740600256547921750,-0.07669904,0.037284255,0.15446335,-1.3012487,0.28491,9.578004
1740600256558717041,-0.06498113,0.035153728,0.14807177,-1.2246342,0.31124622,9.534908
1740600256569065541,-0.06178534,0.03195793,0.1438107,-1.1504139,0.2681506,9.53012
1740600256578094292,-0.0479369,0.01917476,0.1257012,-1.0618285,0.1340753,9.5253315
1740600256587878750,-0.04261058,0.008522116,0.11930962,-1.0726024,0.12330139,9.512163
1740600256598257042,-0.03834952,-0.011717909,0.112918034,-1.2198458,0.2633622,9.340978
1740600256606092458,-0.037284255,-0.017044231,0.11504856,-1.1887212,0.29209262,9.281123
1740600256618854833,-0.04580637,-0.05006743,0.128897,-0.9744401,0.2633622,9.229648
1740600256627687792,-0.054328486,-0.07669904,0.1257012,-0.8463503,0.12090719,9.270349
1740600256638793375,-0.068176925,-0.098004326,0.112918034,-0.90979666,0.034715924,9.412804
1740600256643279666,-0.0777643,-0.10226539,0.10652645,-1.0354922,0.062249243,9.53012
1740600256652937208,-0.11504856,-0.07882957,0.099069595,-1.1408371,0.14844051,9.543288
1740600256667297375,-0.13102753,-0.058589544,0.10333065,-1.1599907,0.18555063,9.611523
1740600256673209375,-0.15765914,-0.0127831735,0.12250541,-1.1552023,0.25019407,9.664195
1740600256678107792,-0.165116,0.00958738,0.13315806,-1.0749966,0.2741361,9.66659
1740600256699991833,-0.15446335,0.07137272,0.15339808,-0.7026982,0.2896984,9.64145
1740600256708361417,-0.1257012,0.07456851,0.14487597,-0.5722142,0.2765303,9.586384
1740600256718525916,-0.09161274,0.06924219,0.12783173,-0.5518635,0.22385786,9.544485
1740600256728959000,-0.07669904,0.06711166,0.11824436,-0.59974754,0.22744916,9.510966
1740600256738309209,-0.026631612,0.066046394,0.08841695,-0.7134721,0.29807812,9.435549
1740600256748483708,-0.010652645,0.06711166,0.082025364,-0.7445967,0.2789245,9.388862
1740600256758715417,0.002130529,0.06391586,0.07563378,-0.7015011,0.33877954,9.270349
1740600256768960000,0.013848438,0.04580637,0.0628506,-0.5602432,0.32321724,9.2069025
1740600256779692208,0.020240024,0.027696876,0.0479369,-0.4333505,0.2681506,9.198523
1740600256788343541,0.013848438,0.008522116,0.02876214,-0.4417302,0.23702596,9.197326
1740600256798924375,-0.004261058,-0.008522116,0.010652645,-0.50397944,0.2765303,9.1590185
1740600256808594625,-0.041545313,-0.0031957934,0.0010652645,-0.5386954,0.320823,9.168595
1740600256818316792,-0.084155895,0.017044231,-0.0063915867,-0.49320555,0.24660277,9.239224
1740600256829078084,-0.10226539,0.029827405,-0.0127831735,-0.4429273,0.25498247,9.26556
1740600256838416833,-0.14274544,0.046871636,-0.039414786,-0.34356794,0.25737667,9.497798
1740600256838483083,-0.14274544,0.046871636,-0.039414786,-0.34356794,0.25737667,9.497798
1740600256852693791,-0.14487597,0.043675844,-0.0479369,-0.34237084,0.29328972,9.516952
1740600256860723167,-0.14061491,0.025566347,-0.060720075,-0.34835634,0.2645593,9.5492735
1740600256873220666,-0.101200126,-0.0010652645,-0.07669904,-0.5327099,0.19871874,9.66659
1740600256889182542,-0.06711166,0.0053263223,-0.07456851,-0.5805939,0.16160862,9.726444
1740600256898560792,-0.040480047,0.00958738,-0.066046394,-0.61291564,0.15562311,9.788693
1740600256908660416,-0.013848438,0.010652645,-0.05006743,-0.7098808,0.260968,9.776723
1740600256919536209,0.008522116,0.015978966,-0.03089267,-0.7433996,0.2873042,9.682152
1740600256928620500,0.02876214,0.022370555,-0.007456851,-0.6979098,0.31004912,9.642648
1740600256938956083,0.0479369,0.02876214,0.010652645,-0.6787562,0.41180268,9.637859
1740600256939182500,0.0479369,0.02876214,0.010652645,-0.6787562,0.41180268,9.637859
1740600256953497291,0.07137272,0.027696876,0.023435818,-0.5315128,0.46567222,9.555259
1740600256968817041,0.07350325,0.002130529,0.017044231,-0.4417302,0.44891283,9.374496
1740600256978373542,0.05752428,-0.01917476,0.004261058,-0.36032736,0.4345476,9.271546
1740600256988381667,0.027696876,-0.026631612,-0.011717909,-0.37349546,0.33518824,9.210494
1740600256999193042,0.00958738,-0.02130529,-0.02130529,-0.40821138,0.2777274,9.220071
1740600257005680875,-0.029827405,-0.0053263223,-0.035153728,-0.5494693,0.25617957,9.252393
1740600257016397125,-0.06498113,0.008522116,-0.040480047,-0.62488663,0.37588966,9.2787285
1740600257027860834,-0.09161274,0.014913702,-0.022370555,-0.60812724,0.50757074,9.379285
1740600257038063667,-0.09054748,0.010652645,-0.013848438,-0.5446809,0.5267244,9.405622
1740600257049544584,-0.05752428,-0.033023197,-0.008522116,-0.35793316,0.5327099,9.503783
1740600257052428583,-0.040480047,-0.049002163,-0.013848438,-0.29807812,0.49440265,9.526528
1740600257067411250,0.0031957934,-0.08628642,-0.039414786,-0.4249708,0.40821138,9.545682
1740600257078805959,0.015978966,-0.101200126,-0.05539375,-0.5734113,0.48362875,9.498995
1740600257088662125,0.015978966,-0.10226539,-0.058589544,-0.60453594,0.533907,9.400833
1740600257098081750,-0.0010652645,-0.10226539,-0.05539375,-0.5746084,0.545878,9.25359
1740600257108954834,-0.004261058,-0.10439592,-0.054328486,-0.5518635,0.521936,9.267955
1740600257118294375,-0.025566347,-0.12463594,-0.05752428,-0.39863458,0.4381389,9.258378
1740600257129709917,-0.033023197,-0.12996227,-0.0628506,-0.39025488,0.4141969,9.258378
1740600257138231459,-0.06711166,-0.128897,-0.06924219,-0.49559975,0.4213795,9.392453
1740600257148426584,-0.08735169,-0.10013486,-0.06178534,-0.5506664,0.5279215,9.516952
1740600257152421833,-0.0958738,-0.07989483,-0.05752428,-0.45729253,0.61052144,9.564836
1740600257168646500,-0.101200126,-0.023435818,-0.041545313,-0.23223756,0.6500258,9.836577
1740600257178600167,-0.09054748,0.00958738,-0.04580637,0.016759412,0.5662287,9.842564
1740600257188499291,-0.08735169,0.036218993,-0.06178534,0.17717093,0.4261679,9.720459
1740600257199399209,-0.08735169,0.0479369,-0.07243799,0.18674773,0.39863458,9.692925
1740600257208566167,-0.10759171,0.07563378,-0.099069595,0.019153614,0.30406362,9.55885
1740600257218290583,-0.12996227,0.09374327,-0.10013486,-0.020350715,0.2717419,9.560047
1740600257229431541,-0.14061491,0.101200126,-0.09267801,-0.055066638,0.24660277,9.647436
1740600257238439416,-0.16618125,0.15765914,-0.058589544,-0.12090719,0.24061728,9.879673
1740600257248438625,-0.15978967,0.21092236,-0.037284255,-0.055066638,0.19153613,9.998186
1740600257252436084,-0.14807177,0.23116238,-0.02876214,-0.021547815,0.20111294,10.02572
1740600257269341458,-0.111852765,0.24820662,-0.015978966,0.11252748,0.2885013,10.0341
1740600257277802791,-0.041545313,0.23755397,-0.0063915867,0.31364042,0.2633622,9.911995
1740600257285982959,-0.02130529,0.22690132,-0.008522116,0.34955344,0.22505496,9.882068
1740600257298579625,0.03195793,0.18855181,-0.023435818,0.2765303,0.22385786,9.862914
1740600257308838292,0.04474111,0.17576863,-0.029827405,0.23343466,0.22505496,9.856929
1740600257318398458,0.06498113,0.15978967,-0.0479369,0.08619126,0.19632454,9.915586
1740600257328986417,0.06924219,0.16192019,-0.053263225,0.0035913025,0.23104046,9.933543
1740600257338230500,0.080960095,0.17576863,-0.06498113,-0.031124622,0.30047232,9.894038
1740600257348656500,0.08948222,0.17470337,-0.07350325,0.07182605,0.21906945,9.768343
1740600257352343042,0.09374327,0.16405073,-0.07989483,0.11971009,0.16879122,9.768343
1740600257368506375,0.096939065,0.113983296,-0.098004326,0.095768064,0.046686932,9.691729
1740600257380334709,0.080960095,0.08735169,-0.099069595,-0.027533319,-0.04070143,9.665392
1740600257388393625,0.05539375,0.07456851,-0.08735169,-0.19871874,-0.07182605,9.624691
1740600257398464709,0.02130529,0.06711166,-0.0628506,-0.37828386,-0.04309563,9.56723
1740600257408462041,0.0010652645,0.06391586,-0.04580637,-0.41299978,-0.053869538,9.502586
1740600257411373208,-0.037284255,0.02876214,0.011717909,-0.39145198,-0.010773907,9.325416
1740600257428524250,-0.094808534,-0.013848438,0.04261058,-0.37948096,-0.017956512,9.242816
1740600257432447166,-0.10865697,-0.03834952,0.051132694,-0.33997664,-0.04309563,9.259575
1740600257447870125,-0.13635385,-0.09267801,0.05752428,-0.22146365,-0.20829555,9.376891
1740600257459591917,-0.14168017,-0.096939065,0.053263225,-0.24181437,-0.22266077,9.431957
1740600257465317166,-0.14913702,-0.08841695,0.046871636,-0.4297592,-0.24301147,9.613917
1740600257477477625,-0.14061491,-0.040480047,0.0628506,-0.7062895,-0.1604115,9.776723
1740600257488468500,-0.111852765,-0.004261058,0.09161274,-0.830788,-0.08140286,9.907207
1740600257493247833,-0.08841695,0.007456851,0.10865697,-0.8319851,-0.044292733,9.90601
1740600257508906209,0.0063915867,0.0127831735,0.15339808,-0.7457938,0.02873042,9.853337
1740600257518860000,0.083090626,-0.0053263223,0.1736381,-0.6404489,0.077811554,9.7324295
1740600257527971250,0.14594123,-0.033023197,0.18109496,-0.5758055,0.10055647,9.609129
1740600257535440166,0.16724652,-0.046871636,0.18322548,-0.5518635,0.11252748,9.510966
1740600257536303208,0.16724652,-0.046871636,0.18322548,-0.5518635,0.11252748,9.510966
1740600257557492541,0.16618125,-0.0958738,0.16085494,-0.39264908,0.21906945,8.899248
1740600257567849375,0.10759171,-0.113983296,0.14168017,-0.19153613,0.15322891,8.736442
1740600257572371209,0.070307456,-0.12463594,0.128897,-0.08738836,0.108936176,8.687361
1740600257586366000,-0.00958738,-0.12996227,0.10013486,-0.011971008,-0.0035913025,8.811859
1740600257597438958,-0.1107875,-0.10226539,0.05539375,-0.12330139,-0.025139118,9.223662
1740600257605734375,-0.128897,-0.08522116,0.04580637,-0.1604115,0.0047884034,9.345766
1740600257618599375,-0.13848437,-0.05219796,0.039414786,-0.20829555,0.05267244,9.518148
1740600257628568000,-0.11504856,-0.051132694,0.05219796,-0.21068975,-0.008379706,9.5492735
1740600257637217209,-0.0777643,-0.06924219,0.06924219,-0.18555063,-0.01436521,9.51336
1740600257648348167,-0.03195793,-0.094808534,0.08948222,-0.25617957,-0.016759412,9.54209
1740600257652098583,-0.00958738,-0.10759171,0.099069595,-0.25977087,-0.022744916,9.556456
1740600257667643000,0.036218993,-0.128897,0.11824436,-0.20231004,0.0023942017,9.591172
1740600257673351375,0.06924219,-0.13528858,0.128897,-0.130484,0.034715924,9.617508
1740600257686801416,0.07989483,-0.13315806,0.13102753,-0.073023155,0.045489833,9.562442
1740600257698281791,0.094808534,-0.11504856,0.12144015,0.08020575,0.049081136,9.500193
1740600257707436500,0.096939065,-0.08628642,0.08628642,0.19273324,-0.010773907,9.478644
1740600257718254458,0.096939065,-0.07669904,0.06924219,0.18674773,-0.010773907,9.446322
1740600257727804833,0.0958738,-0.05219796,0.023435818,0.03232172,-0.019153614,9.540894
1740600257738332459,0.098004326,-0.04474111,0.0,-0.062249243,-0.017956512,9.537302
1740600257747872917,0.096939065,-0.05006743,-0.017044231,-0.09935937,-0.04309563,9.514558
1740600257752500000,0.0958738,-0.05539375,-0.02130529,-0.14844051,-0.1412579,9.471462
1740600257768186916,0.07669904,-0.06711166,-0.029827405,-0.2813187,-0.20590134,9.524135
1740600257778092791,0.06391586,-0.070307456,-0.022370555,-0.34596214,-0.19273324,9.582792
1740600257788265500,0.053263225,-0.066046394,-0.0031957934,-0.37828386,-0.15442601,9.623494
1740600257799088167,0.04580637,-0.06498113,0.00958738,-0.37110126,-0.130484,9.65821
1740600257807790584,0.03195793,-0.06178534,0.041545313,-0.2741361,-0.075417355,9.776723
1740600257812275291,0.034088463,-0.0628506,0.049002163,-0.17597382,-0.077811554,9.745598
1740600257828772458,0.04261058,-0.08948222,0.041545313,0.06703765,-0.1316811,9.674969
1740600257838103584,0.04474111,-0.1107875,0.022370555,0.019153614,-0.1592144,9.662998
1740600257847758542,0.043675844,-0.113983296,0.014913702,-0.021547815,-0.14724341,9.618706
1740600257858009625,0.014913702,-0.094808534,0.0,-0.15801731,-0.2693477,9.506178
1740600257868992167,0.0,-0.082025364,0.0,-0.2657564,-0.2741361,9.557653
1740600257878471083,-0.033023197,-0.036218993,0.02130529,-0.4297592,-0.23582886,9.713276
1740600257886206833,-0.035153728,-0.024501082,0.034088463,-0.4213795,-0.22026655,9.755175
1740600257899921250,-0.015978966,-0.015978966,0.07989483,-0.45010993,-0.18794483,9.781511
1740600257908155875,0.010652645,-0.023435818,0.10865697,-0.47046062,-0.1400608,9.759963
1740600257918245083,0.036218993,-0.034088463,0.13102753,-0.4441244,-0.10295067,9.676167
1740600257928903583,0.04580637,-0.03834952,0.13741912,-0.4309563,-0.08140286,9.580399
1740600257939103250,0.06178534,-0.056459017,0.14594123,-0.29688102,0.020350715,9.496601
1740600257945732625,0.06391586,-0.0628506,0.14274544,-0.2896984,0.04070143,9.460688
1740600257959753292,0.05965481,-0.09054748,0.12676647,-0.11252748,0.06584055,9.433155
1740600257968991542,0.05539375,-0.10013486,0.10759171,-0.095768064,0.12689269,9.4774475
1740600257978369709,0.051132694,-0.101200126,0.08841695,-0.051475335,0.19512744,9.557653
1740600257988201333,0.040480047,-0.098004326,0.06924219,0.05865794,0.23702596,9.498995
1740600257998000667,0.020240024,-0.09267801,0.04474111,0.1592144,0.14724341,9.455899
1740600258008017541,0.007456851,-0.08841695,0.029827405,0.16759412,0.090979666,9.461885
1740600258012965583,-0.018109497,-0.07563378,0.0010652645,0.16160862,0.044292733,9.472659
1740600258027425583,-0.049002163,-0.05219796,-0.024501082,-0.0035913025,0.08379706,9.652225
1740600258038735125,-0.051132694,-0.046871636,-0.022370555,-0.059855044,0.092176765,9.752781
1740600258047892417,-0.04261058,-0.023435818,0.0063915867,-0.1604115,0.22266077,9.788693
1740600258052422000,-0.03195793,-0.018109497,0.020240024,-0.12928689,0.2681506,9.80665
1740600258068197333,-0.0031957934,-0.023435818,0.05539375,0.08140286,0.2681506,9.719262
1740600258078962167,0.0031957934,-0.03089267,0.0628506,0.17836803,0.25139117,9.692925
1740600258088582875,-0.0010652645,-0.036218993,0.056459017,0.30166942,0.18674773,9.572019
1740600258099214875,-0.00958738,-0.029827405,0.0479369,0.29688102,0.17357962,9.512163
1740600258103364416,-0.033023197,-0.0031957934,0.027696876,0.24061728,0.16639702,9.490616
1740600258117859417,-0.07243799,0.0479369,0.0,0.20350714,0.14844051,9.539697
1740600258128486292,-0.07989483,0.05965481,-0.007456851,0.17956513,0.16639702,9.557653
1740600258138973500,-0.083090626,0.06391586,-0.018109497,0.19752164,0.2753332,9.657013
1740600258147875000,-0.07137272,0.049002163,-0.02130529,0.2741361,0.22146365,9.710882
1740600258152414958,-0.0628506,0.041545313,-0.026631612,0.30286652,0.17597382,9.701305
1740600258168293166,-0.033023197,0.02876214,-0.04474111,0.33279404,0.05626374,9.866506
1740600258171504500,-0.024501082,0.03195793,-0.051132694,0.30406362,0.017956512,9.886856
1740600258188513333,0.0010652645,0.060720075,-0.05752428,0.14724341,-0.034715924,10.007763
1740600258197916042,0.02130529,0.08628642,-0.049002163,0.1388637,-0.051475335,9.921572
1740600258208089375,0.03195793,0.099069595,-0.04261058,0.12090719,-0.055066638,9.935937
1740600258218078916,0.06391586,0.12463594,-0.022370555,0.1340753,-0.05865794,9.885659
1740600258227573000,0.07350325,0.12996227,-0.015978966,0.15682021,-0.046686932,9.878476
1740600258237014584,0.10013486,0.12463594,-0.004261058,0.17357962,0.033518825,9.759963
1740600258247904375,0.10546118,0.11930962,-0.002130529,0.21308395,0.051475335,9.716867
1740600258257909167,0.096939065,0.096939065,-0.011717909,0.2896984,-0.016759412,9.563639
1740600258268085125,0.08735169,0.09161274,-0.018109497,0.30406362,-0.021547815,9.485827
1740600258284351458,0.029827405,0.08628642,-0.054328486,0.21547815,-0.09816227,9.551667
1740600258278242041,0.04580637,0.082025364,-0.046871636,0.2717419,-0.06464344,9.482236
1740600258298056333,-0.011717909,0.098004326,-0.06711166,0.08619126,-0.11971009,9.7863
1740600258347264041,0.05539375,0.0958738,0.015978966,-0.18076223,0.027533319,9.7563715
1740600258309537833,-0.018109497,0.10652645,-0.066046394,0.039504327,-0.12808979,9.822212
1740600258312589042,-0.020240024,0.12676647,-0.05219796,-0.075417355,-0.034715924,9.919178
1740600258327009666,-0.0031957934,0.13635385,-0.027696876,-0.11971009,-0.015562311,9.940725
1740600258339198125,0.033023197,0.11930962,0.0053263223,-0.16280572,-0.016759412,9.855731
1740600258358480917,0.06924219,0.07137272,0.017044231,-0.16639702,0.094570965,9.616311
1740600258368479833,0.068176925,0.060720075,0.013848438,-0.11252748,0.08140286,9.586384
1740600258375360834,0.05965481,0.053263225,0.0,-0.092176765,0.025139118,9.647436
1740600258388021334,0.029827405,0.07456851,-0.029827405,-0.22744916,0.027533319,9.642648
1740600258398823333,0.0063915867,0.099069595,-0.046871636,-0.32321724,0.093373865,9.583989
1740600258409114667,-0.0010652645,0.111852765,-0.05006743,-0.36511576,0.10654198,9.651027
1740600258445834791,-0.002130529,0.080960095,-0.041545313,-0.48961425,0.12449849,9.634268
1740600258418712250,-0.014913702,0.11717909,-0.046871636,-0.47524905,0.10534488,9.580399
1740600258428642041,-0.018109497,0.10652645,-0.04474111,-0.47524905,0.10534488,9.572019
1740600258438846833,-0.00958738,0.09054748,-0.041545313,-0.48003745,0.10654198,9.628283
1740600258456028583,0.015978966,0.06924219,-0.04474111,-0.48961425,0.15801731,9.64145
1740600258464947166,0.03089267,0.05965481,-0.049002163,-0.4333505,0.1604115,9.598354
1740600258479291375,0.0479369,0.05006743,-0.066046394,-0.4405331,0.16759412,9.531317
1740600258485875792,0.053263225,0.04580637,-0.07243799,-0.4429273,0.16759412,9.512163
1740600258494291583,0.05219796,0.039414786,-0.08735169,-0.48243165,0.18794483,9.428367
1740600258507456833,0.046871636,0.03834952,-0.101200126,-0.5386954,0.16400282,9.406818
1740600258519330916,0.036218993,0.040480047,-0.12783173,-0.5434838,0.09816227,9.376891
1740600258546416833,0.026631612,0.03834952,-0.1438107,-0.7529764,0.11492168,9.457097
1740600258527339458,0.03195793,0.04261058,-0.13528858,-0.58657944,0.075417355,9.3661175
1740600258539155916,0.024501082,0.039414786,-0.14594123,-0.6835446,0.075417355,9.390059
1740600258558522458,0.03834952,0.034088463,-0.11504856,-0.82480246,0.15203181,9.495404
1740600258558595375,0.03834952,0.034088463,-0.11504856,-0.82480246,0.15203181,9.495404
1740600258578334458,0.066046394,0.024501082,-0.06498113,-0.7613561,0.20111294,9.512163
1740600258585272834,0.07350325,0.01917476,-0.054328486,-0.7314286,0.24061728,9.471462
1740600258597255667,0.07456851,0.008522116,-0.026631612,-0.61770403,0.260968,9.363723
1740600258606385709,0.06711166,0.007456851,-0.02130529,-0.58897364,0.25617957,9.324219
1740600258618528250,0.024501082,0.017044231,-0.018109497,-0.58538234,0.25617957,9.2907
1740600258628501416,-0.015978966,0.017044231,-0.024501082,-0.58657944,0.25617957,9.205706
1740600258637285459,-0.05539375,0.0127831735,-0.033023197,-0.60333884,0.25498247,9.169792
1740600258648583958,-0.09054748,0.011717909,-0.041545313,-0.5602432,0.20829555,9.257181
1740600258658530250,-0.11717909,0.008522116,-0.049002163,-0.545878,0.17238252,9.380483
1740600258666215791,-0.12463594,0.008522116,-0.051132694,-0.5470751,0.18914193,9.498995
1740600258673103583,-0.12463594,0.010652645,-0.049002163,-0.61530983,0.24061728,9.702502
1740600258688775875,-0.0958738,0.01917476,-0.029827405,-0.60333884,0.35075054,9.782708
1740600258699004875,-0.066046394,0.024501082,-0.010652645,-0.5386954,0.32202014,9.7084875
1740600258708105750,-0.04261058,0.02876214,-0.004261058,-0.4141969,0.30406362,9.599552
1740600258714919917,-0.03089267,0.029827405,-0.0053263223,-0.33159694,0.2908955,9.476251
1740600258725995083,-0.010652645,0.029827405,-0.014913702,-0.2789245,0.2873042,9.506178
1740600258739305000,0.018109497,0.01917476,-0.046871636,-0.2681506,0.29328972,9.510966
1740600258748293916,0.034088463,0.017044231,-0.07243799,-0.2908955,0.24301147,9.411607
1740600258758578958,0.039414786,0.01917476,-0.094808534,-0.36032736,0.21906945,9.334992
1740600258769206833,0.034088463,0.026631612,-0.1107875,-0.45370123,0.20470424,9.224859
1740600258772203125,0.02876214,0.02876214,-0.113983296,-0.50278234,0.19991584,9.196129
1740600258785588583,0.02130529,0.026631612,-0.11717909,-0.5446809,0.21188685,9.24521
1740600258799281625,0.024501082,0.00958738,-0.10652645,-0.581791,0.23702596,9.3026705
1740600258807206417,0.026631612,0.002130529,-0.10013486,-0.59017074,0.2741361,9.31105
1740600258813270958,0.029827405,-0.010652645,-0.08628642,-0.5614403,0.29688102,9.27394
1740600258824901583,0.025566347,-0.011717909,-0.07350325,-0.5746084,0.29209262,9.208099
1740600258839443750,-0.002130529,-0.002130529,-0.060720075,-0.49679685,0.30526072,9.053674
1740600258846516083,-0.013848438,-0.0010652645,-0.060720075,-0.49679685,0.33877954,9.030929
1740600258858558666,-0.04261058,-0.02130529,-0.05965481,-0.40821138,0.45370123,9.108741
1740600258868700792,-0.05006743,-0.05219796,-0.0628506,-0.24660277,0.4345476,9.143456
1740600258879025500,-0.05219796,-0.083090626,-0.07456851,-0.094570965,0.3842694,9.214086
1740600258888468958,-0.05965481,-0.10865697,-0.096939065,-0.053869538,0.29927522,9.299079
1740600258898476417,-0.066046394,-0.12037488,-0.1257012,-0.093373865,0.20709845,9.3026705
1740600258908606416,-0.0777643,-0.11824436,-0.15339808,-0.22026655,0.14844051,9.352949
1740600258918557792,-0.09054748,-0.10759171,-0.16937704,-0.39384618,0.20470424,9.496601
1740600258928412917,-0.08735169,-0.10439592,-0.16831179,-0.5255273,0.29568392,9.630676
1740600258939127166,-0.054328486,-0.10865697,-0.13528858,-0.4237737,0.37588966,9.709685
1740600258949119917,-0.011717909,-0.11824436,-0.111852765,-0.2681506,0.31483752,9.781511
1740600258951965833,0.00958738,-0.12250541,-0.10546118,-0.25139117,0.30166942,9.862914
1740600258965583166,0.04580637,-0.12144015,-0.10333065,-0.17238252,0.30286652,9.822212
1740600258979027083,0.07989483,-0.098004326,-0.10759171,-0.16759412,0.29328972,9.679757
1740600258989324916,0.08522116,-0.09161274,-0.111852765,-0.15442601,0.3196259,9.615114
1740600258999534958,0.08841695,-0.080960095,-0.1257012,-0.108936176,0.30526072,9.508572
1740600259008575166,0.083090626,-0.08841695,-0.13528858,-0.059855044,0.29688102,9.433155
1740600259018755667,0.07563378,-0.096939065,-0.14807177,-0.017956512,0.2621651,9.409213
1740600259025621042,0.066046394,-0.099069595,-0.15339808,-0.017956512,0.22984336,9.441534
1740600259036605875,0.043675844,-0.099069595,-0.16724652,-0.01436521,0.16280572,9.449914
1740600259036759292,0.043675844,-0.099069595,-0.16724652,-0.01436521,0.16280572,9.449914
1740600259058243166,-0.023435818,-0.0958738,-0.1555286,-0.16998832,0.17836803,9.437943
1740600259068642083,-0.035153728,-0.10333065,-0.13209279,-0.16519992,0.20231004,9.494206
1740600259072247625,-0.03834952,-0.1107875,-0.11717909,-0.1364695,0.21787235,9.496601
1740600259087692375,-0.039414786,-0.12037488,-0.09161274,-0.044292733,0.18914193,9.510966
1740600259098544375,-0.040480047,-0.128897,-0.070307456,0.06823475,0.06464344,9.423578
1740600259098750000,-0.040480047,-0.128897,-0.070307456,0.06823475,0.06464344,9.423578
1740600259118211458,-0.06498113,-0.101200126,-0.05752428,0.073023155,0.046686932,9.48463
1740600259128904500,-0.066046394,-0.094808534,-0.056459017,0.05865794,0.04070143,9.527725
1740600259137526667,-0.06498113,-0.098004326,-0.05006743,0.095768064,0.16519992,9.600749
1740600259148188000,-0.05539375,-0.11611383,-0.041545313,0.17477672,0.23582886,9.621099
1740600259158261708,-0.04261058,-0.13102753,-0.041545313,0.2681506,0.22744916,9.770737
1740600259167963625,-0.035153728,-0.13635385,-0.046871636,0.2645593,0.18674773,9.838972
1740600259179900084,-0.008522116,-0.13315806,-0.068176925,0.19393034,0.24420857,10.028113
1740600259187633250,0.002130529,-0.1257012,-0.07456851,0.142455,0.29209262,10.016143
1740600259198019833,0.029827405,-0.09267801,-0.08841695,0.16280572,0.33997664,9.977836
1740600259198106041,0.029827405,-0.09267801,-0.08841695,0.16280572,0.33997664,9.977836
1740600259218627084,0.035153728,-0.041545313,-0.10652645,0.33638534,0.24301147,9.892841
1740600259228589042,0.033023197,-0.02130529,-0.12037488,0.2681506,0.22744916,9.885659
1740600259238181958,0.039414786,0.0,-0.12463594,0.22864626,0.31603462,9.974244
1740600259247768750,0.05752428,0.014913702,-0.12144015,0.2693477,0.37349546,9.94312
1740600259252452875,0.07137272,0.01917476,-0.11717909,0.30286652,0.36750996,9.940725
1740600259269121875,0.1107875,0.0063915867,-0.12144015,0.5410896,0.34237084,9.763555
1740600259277794959,0.13102753,-0.017044231,-0.13422333,0.6871359,0.2753332,9.615114
1740600259277683959,0.13102753,-0.017044231,-0.13422333,0.6871359,0.2753332,9.615114
1740600259297727250,0.13954964,-0.07350325,-0.18109496,0.5506664,0.21667525,9.534908
1740600259297728334,0.13954964,-0.07350325,-0.18109496,0.5506664,0.21667525,9.534908
1740600259317490333,0.098004326,-0.094808534,-0.21731395,0.24779987,0.14724341,9.457097
1740600259328110958,0.06924219,-0.10013486,-0.22370553,0.12449849,0.18555063,9.416395
1740600259332343167,0.05219796,-0.10226539,-0.221575,0.088585466,0.19991584,9.391256
1740600259345593292,0.02130529,-0.10759171,-0.21092236,0.11372458,0.22505496,9.350554
1740600259357710250,-0.013848438,-0.10546118,-0.19068234,0.094570965,0.10055647,9.545682
1740600259367632709,-0.025566347,-0.0958738,-0.18216023,0.02873042,0.075417355,9.627085
1740600259377376500,-0.020240024,-0.082025364,-0.16831179,-0.08020575,0.10414778,9.703699
1740600259388065209,-0.010652645,-0.070307456,-0.1438107,-0.14844051,0.1364695,9.801862
1740600259398352875,0.015978966,-0.056459017,-0.11504856,-0.18076223,0.15562311,9.8677025
1740600259407892000,0.0479369,-0.04580637,-0.082025364,-0.055066638,0.15083471,9.949105
1740600259417786917,0.082025364,-0.039414786,-0.056459017,-0.0011971008,0.09696517,10.060435
1740600259428614542,0.11504856,-0.034088463,-0.03834952,-0.06943185,0.05865794,10.09994
1740600259439330708,0.13954964,-0.023435818,-0.022370555,-0.1352724,0.031124622,10.126276
1740600259448800750,0.15020229,-0.002130529,0.0031957934,-0.15442601,0.037110128,10.110714
1740600259468076125,0.15233281,0.0479369,0.039414786,-0.20829555,0.049081136,10.177752
1740600259457929375,0.15339808,0.03195793,0.027696876,-0.22146365,0.0047884034,10.144233
1740600259479509750,0.13741912,0.096939065,0.068176925,-0.090979666,0.031124622,10.184934
1740600259488561708,0.1257012,0.128897,0.07989483,-0.1316811,0.050278235,10.152613
1740600259492261041,0.12037488,0.14594123,0.08522116,-0.14844051,0.092176765,10.103531
1740600259508139834,0.10546118,0.18748654,0.098004326,-0.1400608,0.12808979,9.940725
1740600259512554958,0.101200126,0.19281286,0.10439592,-0.15801731,0.15801731,9.896433
1740600259528175750,0.07989483,0.18535602,0.11824436,-0.12210429,0.20949265,9.726444
1740600259538241375,0.05752428,0.16831179,0.1257012,-0.12689269,0.23104046,9.662998
1740600259548729209,0.02876214,0.1555286,0.12783173,-0.12569559,0.21188685,9.566033
1740600259558389042,-0.0063915867,0.14487597,0.12676647,-0.1388637,0.19393034,9.475053
1740600259558319625,-0.0063915867,0.14487597,0.12676647,-0.1388637,0.19393034,9.475053
1740600259578598916,-0.070307456,0.12463594,0.11504856,-0.076614454,0.23582886,9.32781
1740600259586357750,-0.082025364,0.11824436,0.112918034,-0.038307227,0.24420857,9.301474
1740600259599168958,-0.10013486,0.099069595,0.10226539,-0.03232172,0.2813187,9.457097
1740600259608625083,-0.08948222,0.099069595,0.09161274,0.046686932,0.2681506,9.622296
1740600259618831834,-0.058589544,0.10333065,0.07456851,0.03232172,0.2705448,9.731233
1740600259628578291,-0.011717909,0.10972224,0.05965481,-0.021547815,0.30765492,9.737218
1740600259638678750,0.04474111,0.1107875,0.05006743,-0.07062895,0.36990416,9.679757
1740600259758523875,0.10865697,-0.03089267,-0.09161274,-0.6368576,0.40940848,9.021352
1740600259645612167,0.07243799,0.10652645,0.043675844,-0.08140286,0.40462008,9.61272
1740600259659185750,0.14168017,0.07989483,0.03195793,-0.02633622,0.40940848,9.41041
1740600259668860000,0.165116,0.06711166,0.018109497,-0.037110128,0.35553896,9.321824
1740600259758500500,0.10865697,-0.03089267,-0.09161274,-0.6368576,0.40940848,9.021352
1740600259673100375,0.17257284,0.0628506,0.0,-0.11731588,0.33039984,9.269152
1740600259687677084,0.17576863,0.0628506,-0.00958738,-0.14844051,0.33877954,9.165004
1740600259692770500,0.1736381,0.06178534,-0.027696876,-0.18195933,0.34715924,9.099164
1740600259707380250,0.16831179,0.049002163,-0.04261058,-0.23942018,0.36511576,9.021352
1740600259719015041,0.1587244,0.023435818,-0.05965481,-0.2681506,0.36631286,9.053674
1740600259727585584,0.15339808,0.013848438,-0.06711166,-0.29209262,0.35793316,9.062054
1740600259732692083,0.14487597,0.0,-0.082025364,-0.36870706,0.32441434,9.048885
1740600259748821500,0.12357068,-0.018109497,-0.09374327,-0.545878,0.3842694,9.078813
1740600259778582458,0.066046394,-0.051132694,-0.08948222,-0.6871359,0.4189853,8.866926
1740600259788967417,0.05219796,-0.060720075,-0.09267801,-0.7230489,0.4225766,8.890868
1740600259810828708,0.007456851,-0.12463594,-0.10759171,-0.7134721,0.48243165,9.129091
1740600259797802292,0.01917476,-0.10972224,-0.10439592,-0.7230489,0.44771573,9.039309
1740600259797877125,0.01917476,-0.10972224,-0.10439592,-0.7230489,0.44771573,9.039309
1740600259828615833,-0.015978966,-0.12250541,-0.11930962,-0.94092125,0.4213795,9.48463
1740600259838279875,-0.008522116,-0.0958738,-0.12357068,-1.0247183,0.41180268,9.574412
1740600259849357666,0.00958738,-0.07243799,-0.12676647,-1.0749966,0.3890578,9.599552
1740600259858365291,0.03195793,-0.051132694,-0.12783173,-1.0821792,0.4261679,9.591172
1740600259869084375,0.04261058,-0.041545313,-0.12676647,-1.0163386,0.3878607,9.55885
1740600259878373792,0.06178534,-0.014913702,-0.12996227,-1.0043676,0.2801216,9.512163
1740600259888956916,0.06391586,-0.00958738,-0.12996227,-1.0163386,0.2669535,9.519346
1740600259899097959,0.054328486,0.0031957934,-0.12250541,-1.0223241,0.2777274,9.368511
1740600259908938250,0.05006743,0.002130529,-0.11504856,-1.0426749,0.2705448,9.374496
1740600259918966000,0.03089267,-0.015978966,-0.09374327,-1.043872,0.22984336,9.392453
1740600259928477666,0.027696876,-0.015978966,-0.08628642,-1.0019734,0.17477672,9.433155
1740600259933117833,0.018109497,-0.017044231,-0.07563378,-0.973243,0.18555063,9.488221
1740600259947635125,0.007456851,-0.007456851,-0.06498113,-0.973243,0.20470424,9.491813
1740600259958498375,-0.018109497,0.020240024,-0.0479369,-0.91099375,0.24420857,9.5253315
1740600259969075875,-0.026631612,0.025566347,-0.041545313,-0.8870517,0.2669535,9.49301
1740600259978541292,-0.040480047,0.039414786,-0.034088463,-0.7505822,0.34476504,9.5253315
1740600259989050667,-0.037284255,0.036218993,-0.035153728,-0.6871359,0.37349546,9.522937
1740600259998891541,-0.0127831735,0.014913702,-0.051132694,-0.62608373,0.4333505,9.633071
1740600260008512750,0.017044231,0.002130529,-0.07137272,-0.5686229,0.46926352,9.683349
1740600260019755875,0.049002163,-0.0053263223,-0.094808534,-0.61650693,0.46806642,9.76954
1740600260024332542,0.066046394,-0.0053263223,-0.10439592,-0.6560113,0.47644615,9.734824
1740600260038919000,0.10226539,0.007456851,-0.11930962,-0.7757214,0.47524905,9.7324295
1740600260047866083,0.10865697,0.01917476,-0.11930962,-0.81043726,0.46208093,9.763555
1740600260077918334,0.15020229,0.16618125,-0.10652645,-0.92176765,0.60573304,9.836577
1740600260058074000,0.11824436,0.07563378,-0.111852765,-1.0247183,0.49081135,9.7803135
1740600260058082792,0.11824436,0.07563378,-0.111852765,-1.0247183,0.49081135,9.7803135
1740600260087102750,0.16405073,0.17789917,-0.10972224,-0.8762778,0.62368953,9.785102
1740600260097995375,0.20559604,0.18322548,-0.12996227,-0.91697925,0.65242,9.57561
1740600260109673625,0.21624869,0.17576863,-0.13848437,-0.93254155,0.6476316,9.5013895
1740600260111165917,0.21624869,0.17576863,-0.13848437,-0.93254155,0.6476316,9.5013895
1740600260128755375,0.2130529,0.11824436,-0.1470065,-1.0845734,0.6967127,9.088389
1740600260132524250,0.19707392,0.10546118,-0.14594123,-1.0869676,0.6619968,8.963891
1740600260147591542,0.12250541,0.06924219,-0.14168017,-1.1444284,0.58538234,8.827422
1740600260177686167,-0.04580637,0.05752428,-0.14274544,-1.2306197,0.4429273,9.266758
1740600260157914167,0.05752428,0.05219796,-0.13954964,-1.2318168,0.60573304,8.925584
1740600260168468666,-0.0031957934,0.049002163,-0.13954964,-1.210269,0.5434838,9.011775
1740600260188591042,-0.06711166,0.070307456,-0.1438107,-1.3551182,0.4285621,9.448717
1740600260198619167,-0.07243799,0.08628642,-0.128897,-1.4532804,0.5530606,9.531317
1740600260208432167,-0.06391586,0.094808534,-0.099069595,-1.4449008,0.62488663,9.54209
1740600260218651500,-0.049002163,0.094808534,-0.0628506,-1.3443443,0.63087213,9.496601
1740600260226181375,-0.040480047,0.09161274,-0.05006743,-1.2749124,0.62009823,9.483433
1740600260238603584,-0.014913702,0.06711166,-0.035153728,-1.0498575,0.59615624,9.587581
1740600260246274958,-0.007456851,0.056459017,-0.03834952,-1.0606314,0.59855044,9.536105
1740600260252210417,0.002130529,0.046871636,-0.051132694,-1.0654198,0.62728083,9.534908
1740600260268253625,0.008522116,0.07563378,-0.07243799,-1.1049241,0.62009823,9.621099
1740600260272377042,0.00958738,0.08735169,-0.080960095,-1.0893618,0.6428431,9.640253
1740600260285464792,0.018109497,0.10972224,-0.094808534,-1.0761937,0.6691794,9.636662
1740600260292486833,0.033023197,0.1257012,-0.10546118,-1.0654198,0.6679823,9.61272
1740600260308662584,0.056459017,0.128897,-0.12037488,-1.0953473,0.61052144,9.560047
1740600260312591208,0.05965481,0.12676647,-0.1257012,-1.1300632,0.5614403,9.500193
1740600260325782041,0.0628506,0.1257012,-0.13209279,-1.1300632,0.5386954,9.415198
1740600260325696750,0.0628506,0.1257012,-0.13209279,-1.1300632,0.5386954,9.415198
1740600260348439375,0.04580637,0.08841695,-0.13954964,-1.4173675,0.47046062,9.204509
1740600260358073625,0.03089267,0.06391586,-0.12037488,-1.4305356,0.44532153,9.186552
1740600260368047000,0.013848438,0.03195793,-0.098004326,-1.4389153,0.46686932,9.168595
1740600260377791417,-0.0031957934,0.00958738,-0.07456851,-1.401805,0.48482585,9.216479
1740600260387332167,-0.010652645,0.0031957934,-0.06178534,-1.3503298,0.47644615,9.211691
1740600260397897000,-0.037284255,-0.02130529,-0.037284255,-1.2497733,0.44771573,9.233239
1740600260408052291,-0.046871636,-0.026631612,-0.034088463,-1.2401965,0.45370123,9.209297
1740600260418007291,-0.0777643,-0.046871636,-0.024501082,-1.1228806,0.46327803,9.203311
1740600260424793833,-0.08841695,-0.05752428,-0.022370555,-1.1013328,0.47165772,9.209297
1740600260430858042,-0.096939065,-0.068176925,-0.02130529,-1.1240777,0.45370123,9.272743
1740600260447925959,-0.1470065,-0.08841695,-0.00958738,-1.2114661,0.36631286,9.269152
1740600260452453000,-0.16085494,-0.08522116,-0.0053263223,-1.2725182,0.37828386,9.296685
1740600260468111709,-0.18535602,-0.05965481,0.008522116,-1.2868834,0.5446809,9.49301
1740600260472483417,-0.18322548,-0.0479369,0.014913702,-1.2246342,0.59256494,9.563639
1740600260488112250,-0.13635385,-0.008522116,0.00958738,-0.92296475,0.62249243,9.840169
1740600260498525500,-0.07989483,0.013848438,-0.0127831735,-0.8439561,0.5746084,10.022128
1740600260508598083,-0.02130529,0.03089267,-0.039414786,-0.90859956,0.59735334,10.056845
1740600260516334875,0.0031957934,0.043675844,-0.049002163,-0.9720459,0.6548142,10.047267
1740600260525482541,0.04580637,0.07456851,-0.060720075,-1.1121067,0.7062895,9.922769
1740600260537872417,0.082025364,0.12037488,-0.0628506,-1.1827357,0.7266402,9.646238
1740600260537987292,0.082025364,0.12037488,-0.0628506,-1.1827357,0.7266402,9.646238
1740600260556955916,0.099069595,0.13102753,-0.07669904,-1.0522517,0.78529817,9.384073
1740600260563271708,0.10226539,0.11930962,-0.084155895,-0.9840169,0.79128367,9.295488
1740600260563249125,0.10226539,0.11930962,-0.084155895,-0.9840169,0.79128367,9.295488
1740600260574099083,0.10652645,0.080960095,-0.111852765,-0.89662856,0.79487497,9.178172
1740600260596761667,0.060720075,0.03834952,-0.14807177,-0.9888053,0.7026982,9.082404
1740600260667306625,-0.07456851,0.035153728,-0.051132694,-1.4149733,0.7290344,9.514558
1740600260607062125,0.015978966,0.029827405,-0.1587244,-1.0785879,0.6703765,9.051279
1740600260678600000,-0.036218993,0.04261058,-0.04261058,-1.2246342,0.7146692,9.489418
1740600260616912292,-0.029827405,0.020240024,-0.16192019,-1.1683705,0.62967503,9.020155
1740600260688103958,0.002130529,0.03089267,-0.05539375,-1.103727,0.6799533,9.361329
1740600260627659833,-0.070307456,0.00958738,-0.15233281,-1.2761095,0.59615624,9.1255
1740600260637426875,-0.0958738,-0.0010652645,-0.13209279,-1.4281414,0.61171854,9.264363
1740600260647269125,-0.10439592,-0.0031957934,-0.10226539,-1.532289,0.63206923,9.357738
1740600260657891084,-0.099069595,0.0127831735,-0.07243799,-1.5514427,0.676362,9.479841
1740600260700246125,0.036218993,0.007456851,-0.07669904,-1.0510546,0.6715736,9.209297
1740600260708012292,0.049002163,-0.02130529,-0.099069595,-1.115698,0.61890113,9.139865
1740600260717924167,0.046871636,-0.04580637,-0.12037488,-1.1755531,0.60453594,9.029732
1740600260729740833,0.039414786,-0.056459017,-0.12783173,-1.2114661,0.5650316,8.993818
1740600260738534417,0.0010652645,-0.09374327,-0.12996227,-1.283292,0.49320555,9.127894
1740600260747884417,-0.022370555,-0.11824436,-0.12357068,-1.3718776,0.4285621,9.215282
1740600260752498000,-0.036218993,-0.128897,-0.11717909,-1.4281414,0.4237737,9.234436
1740600260763955458,-0.056459017,-0.13848437,-0.09374327,-1.5215151,0.4321534,9.315839
1740600260777773792,-0.06711166,-0.1438107,-0.058589544,-1.5047557,0.51116204,9.470264
1740600260787812250,-0.06711166,-0.14913702,-0.04474111,-1.3946224,0.50876784,9.528923
1740600260798566417,-0.06391586,-0.15020229,-0.024501082,-1.2246342,0.31603462,9.701305
1740600260808598167,-0.0628506,-0.13848437,-0.024501082,-1.2306197,0.2741361,9.7563715
1740600260818264250,-0.06391586,-0.12144015,-0.015978966,-1.3012487,0.30406362,9.776723
1740600260818381084,-0.06391586,-0.12144015,-0.015978966,-1.3012487,0.30406362,9.776723
1740600260838675250,-0.07137272,-0.09374327,0.036218993,-1.1815386,0.4357447,9.751583
1740600260849571500,-0.0777643,-0.0777643,0.05752428,-0.94211835,0.415394,9.744401
1740600260857888333,-0.08735169,-0.05752428,0.060720075,-0.7374141,0.38067806,9.79827
1740600260868107958,-0.08948222,-0.0479369,0.053263225,-0.6619968,0.320823,9.785102
1740600260879603459,-0.08841695,-0.024501082,0.015978966,-0.6392518,0.3878607,9.940725
1740600260888355417,-0.07669904,-0.00958738,-0.0063915867,-0.6967127,0.40102878,10.007763
1740600260898406792,-0.054328486,0.00958738,-0.014913702,-0.7745243,0.4189853,9.896433
1740600260898422125,-0.054328486,0.00958738,-0.014913702,-0.7745243,0.4189853,9.896433
1740600260930772208,0.0,0.058589544,-0.00958738,-0.6380547,0.37349546,9.65821
1740600260918274708,-0.008522116,0.05219796,-0.010652645,-0.6907272,0.36152446,9.731233
1740600260918310667,-0.008522116,0.05219796,-0.010652645,-0.6907272,0.36152446,9.731233
1740600260944909041,0.03089267,0.05965481,-0.015978966,-0.6380547,0.2753332,9.503783
1740600260988469292,0.04261058,0.12676647,-0.023435818,-0.9888053,0.25498247,9.330204
1740600260958874709,0.03089267,0.07882957,-0.02130529,-0.82599956,0.2741361,9.548077
1740600260967987292,0.02876214,0.09161274,-0.020240024,-0.85473,0.2705448,9.555259
1740600260979409000,0.033023197,0.12783173,-0.022370555,-0.91817635,0.25258827,9.460688
1740600260998116542,0.058589544,0.10439592,-0.025566347,-1.0654198,0.24420857,9.197326
1740600261007631333,0.066046394,0.08628642,-0.026631612,-1.0965444,0.25737667,9.141062
1740600261016430125,0.07882957,0.039414786,-0.023435818,-1.1300632,0.24301147,9.011775
1740600261028183333,0.07137272,-0.037284255,-0.015978966,-1.3120226,0.21787235,8.987833
1740600261038438250,0.043675844,-0.06391586,-0.008522116,-1.4460979,0.14963761,8.974665
1740600261044102791,0.024501082,-0.06711166,-0.004261058,-1.5143325,0.12928689,8.968679
1740600261049683792,-0.0010652645,-0.066046394,0.002130529,-1.5801731,0.11372458,8.949526
1740600261068617375,-0.07563378,-0.05219796,0.025566347,-1.6807296,0.14724341,9.069236
1740600261079839750,-0.113983296,-0.049002163,0.06498113,-1.6903064,0.25378537,9.202114
1740600261088569000,-0.10972224,-0.06391586,0.09267801,-1.5801731,0.30406362,9.346964
1740600261098424625,-0.10013486,-0.07456851,0.10759171,-1.5191209,0.32321724,9.400833
1740600261106565458,-0.05006743,-0.112918034,0.13102753,-1.3192052,0.3196259,9.540894
1740600261117870333,-0.013848438,-0.128897,0.13422333,-1.258153,0.33399114,9.619903
1740600261128326125,0.014913702,-0.13528858,0.128897,-1.1887212,0.40581718,9.601946
1740600261138934292,0.033023197,-0.12463594,0.12037488,-1.186327,0.4297592,9.557653
1740600261147242375,0.04261058,-0.10972224,0.10759171,-1.1372458,0.3890578,9.543288
1740600261158080208,0.04580637,-0.098004326,0.08841695,-1.0977415,0.37588966,9.504981
1740600261168542375,0.046871636,-0.09374327,0.07882957,-1.0953473,0.36870706,9.5385
1740600261178249416,0.05752428,-0.09161274,0.06391586,-1.2006922,0.39624038,9.52174
1740600261188494000,0.06178534,-0.08841695,0.0628506,-1.2689269,0.40222588,9.556456
1740600261198427542,0.06498113,-0.083090626,0.07350325,-1.3479356,0.3842694,9.516952
1740600261208075500,0.068176925,-0.07882957,0.09054748,-1.4329298,0.39264908,9.572019
1740600261212301667,0.06924219,-0.07882957,0.10226539,-1.4496891,0.40940848,9.539697
1740600261228002500,0.06498113,-0.07243799,0.13954964,-1.4377182,0.44771573,9.424775
1740600261237693792,0.0479369,-0.07350325,0.15978967,-1.3563153,0.44651863,9.288305
1740600261248009875,0.023435818,-0.07563378,0.17257284,-1.2354081,0.45370123,9.188946
1740600261259452666,-0.010652645,-0.07989483,0.1768339,-1.1324574,0.44891283,9.208099
1740600261268554375,-0.04474111,-0.0777643,0.17470337,-1.0690111,0.45968673,9.361329
1740600261276220750,-0.05752428,-0.07989483,0.17470337,-1.0690111,0.48003745,9.367314
1740600261288212083,-0.07882957,-0.08522116,0.17470337,-1.1168951,0.48482585,9.491813
1740600261299010500,-0.08628642,-0.07882957,0.18322548,-1.127669,0.49679685,9.490616
1740600261307947291,-0.08841695,-0.06711166,0.1917476,-1.1408371,0.49200845,9.478644
1740600261319110458,-0.08841695,-0.05219796,0.1949434,-1.0881647,0.49320555,9.52174
1740600261327944500,-0.08628642,-0.034088463,0.19707392,-1.1025299,0.46926352,9.599552
1740600261339214083,-0.080960095,-0.011717909,0.19813919,-1.1025299,0.4237737,9.642648
1740600261343450250,-0.0777643,0.004261058,0.19600865,-1.1001357,0.4381389,9.627085
1740600261351522500,-0.07137272,0.02130529,0.19600865,-1.151611,0.46088383,9.634268
1740600261360525000,-0.05006743,0.054328486,0.20026971,-1.1851299,0.5422867,9.688137
1740600261377971375,0.041545313,0.11504856,0.20133498,-1.1252748,0.6404489,9.672575
1740600261388819000,0.10546118,0.12250541,0.18961707,-1.0103531,0.6847417,9.606734
1740600261392076083,0.13741912,0.11930962,0.18216023,-0.89184016,0.6931214,9.572019
1740600261406176084,0.16831179,0.11504856,0.17044231,-0.79008657,0.6727707,9.569624
1740600261419642292,0.25353295,0.09374327,0.10759171,-0.7505822,0.61650693,9.390059
1740600261428294708,0.26205507,0.09054748,0.07882957,-0.82599956,0.65242,9.305065
1740600261438456208,0.2545982,0.094808534,0.066046394,-0.92775315,0.6404489,9.252393
1740600261448319375,0.24181503,0.094808534,0.058589544,-0.9600749,0.62967503,9.194932
1740600261452225041,0.23222765,0.08735169,0.056459017,-0.9720459,0.6500258,9.131485
1740600261468663166,0.20026971,0.054328486,0.06178534,-0.92655605,0.62368953,9.064447
1740600261479076042,0.17150758,0.024501082,0.070307456,-0.9540894,0.60214174,9.077616
1740600261488455875,0.13635385,0.0031957934,0.07989483,-0.9504981,0.61171854,9.093178
1740600261492344708,0.11504856,0.0,0.08628642,-0.92775315,0.59615624,9.181764
1740600261508652834,0.06391586,-0.0053263223,0.10226539,-0.973243,0.56982,9.355343
1740600261518346000,0.039414786,-0.010652645,0.11504856,-1.021127,0.58777654,9.409213
1740600261529179334,0.03195793,-0.0127831735,0.12357068,-1.0534488,0.581791,9.386468
1740600261538336625,0.015978966,-0.02130529,0.15659387,-1.1228806,0.6368576,9.509769
1740600261538140709,0.015978966,-0.02130529,0.15659387,-1.1228806,0.6368576,9.509769
1740600261558405084,0.0053263223,-0.020240024,0.19707392,-0.9816227,0.6739678,9.546879
1740600261558497584,0.0053263223,-0.020240024,0.19707392,-0.9816227,0.6739678,9.546879
1740600261578700208,-0.0063915867,-0.041545313,0.20559604,-0.8619126,0.6751649,9.496601
1740600261585727750,-0.008522116,-0.051132694,0.20559604,-0.80205756,0.6787562,9.459491
1740600261599032625,-0.024501082,-0.08735169,0.19387813,-0.79248077,0.676362,9.362526
1740600261608690667,-0.040480047,-0.10759171,0.18535602,-0.82121116,0.6655881,9.3661175
1740600261619149583,-0.05965481,-0.113983296,0.17789917,-0.82360536,0.6344634,9.419987
1740600261629007291,-0.080960095,-0.10865697,0.17257284,-0.8738836,0.59495914,9.527725
1740600261638572375,-0.0958738,-0.08628642,0.16937704,-0.89543146,0.59974754,9.619903
1740600261645409208,-0.10226539,-0.070307456,0.16937704,-0.88944596,0.60094464,9.679757
1740600261658853334,-0.101200126,-0.02876214,0.16831179,-0.81163436,0.61052144,9.76954
1740600261665916916,-0.09374327,-0.018109497,0.16618125,-0.7565677,0.59136784,9.811439
1740600261678861791,-0.07456851,-0.004261058,0.16298546,-0.7062895,0.5590461,9.922769
1740600261679112666,-0.07456851,-0.004261058,0.16298546,-0.7062895,0.5590461,9.922769
1740600261694987875,-0.03195793,0.022370555,0.15978967,-0.78410107,0.5518635,9.830592
1740600261707428250,-0.03089267,0.043675844,0.17470337,-0.81043726,0.6380547,9.702502
1740600261716353417,-0.033023197,0.04580637,0.18002969,-0.81881696,0.6344634,9.640253
1740600261748040583,-0.037284255,0.026631612,0.16618125,-0.51475334,0.6572084,9.631873
1740600261728567750,-0.039414786,0.040480047,0.18855181,-0.6775591,0.6727707,9.52174
1740600261738065417,-0.039414786,0.03195793,0.1768339,-0.5374983,0.6895301,9.580399
1740600261759353167,-0.024501082,0.00958738,0.12783173,-0.5291186,0.60573304,9.617508
1740600261763294250,-0.022370555,0.0053263223,0.11504856,-0.5614403,0.62488663,9.580399
1740600261778002792,-0.025566347,0.0127831735,0.09161274,-0.6919243,0.51954174,9.637859
1740600261788459875,-0.03834952,0.034088463,0.09054748,-0.830788,0.5291186,9.721656
1740600261799336333,-0.046871636,0.060720075,0.10013486,-0.90859956,0.5267244,9.749189
1740600261808394834,-0.05006743,0.07989483,0.11504856,-0.89184016,0.5374983,9.7084875
1740600261818989375,-0.04261058,0.07882957,0.128897,-0.8595184,0.5638345,9.657013
1740600261828147500,-0.02876214,0.0628506,0.14168017,-0.79726917,0.59376204,9.616311
1740600261832604125,-0.020240024,0.053263225,0.1438107,-0.7553706,0.5710171,9.617508
1740600261845713166,-0.0127831735,0.041545313,0.14274544,-0.7350199,0.5781997,9.579201
1740600261858943208,0.002130529,0.014913702,0.12783173,-0.79607207,0.545878,9.574412
1740600261868455167,-0.007456851,0.011717909,0.113983296,-0.830788,0.5590461,9.485827
1740600261872395250,-0.014913702,0.008522116,0.10865697,-0.93373865,0.59735334,9.44752
1740600261887558042,-0.041545313,0.0063915867,0.10333065,-0.9660604,0.59376204,9.476251
1740600261892450667,-0.046871636,0.0063915867,0.101200126,-0.94331545,0.59615624,9.545682
1740600261908364833,-0.03834952,-0.004261058,0.09054748,-0.8343793,0.59136784,9.582792
1740600261919243375,-0.03195793,-0.008522116,0.084155895,-0.7745243,0.5231331,9.664195
1740600261928554042,-0.018109497,-0.013848438,0.07137272,-0.94451255,0.439336,9.7479925
1740600261937949834,-0.024501082,0.0031957934,0.07563378,-1.0654198,0.4321534,9.61272
1740600261947887417,-0.039414786,0.02876214,0.09267801,-1.1228806,0.4441244,9.464279
1740600261959579208,-0.0628506,0.039414786,0.11824436,-1.1563994,0.45250413,9.4774475
1740600261968034458,-0.0777643,0.0479369,0.14274544,-1.0714053,0.49320555,9.491813
1740600261978804625,-0.080960095,0.049002163,0.15659387,-0.90620536,0.47764325,9.5385
