#timestamp [ns],w_RS_S_x [rad s^-1],w_RS_S_y [rad s^-1],w_RS_S_z [rad s^-1],a_RS_S_x [m s^-2],a_RS_S_y [m s^-2],a_RS_S_z [m s^-2]
1740628105941942208,0.09054748,-0.09374327,-0.0010652645,-0.6488287,4.9069166,8.785523
1740628105952088417,0.18429075,-0.035153728,0.00958738,-0.47764325,4.891354,8.996213
1740628105952559124,0.18429075,-0.035153728,0.00958738,-0.47764325,4.891354,8.996213
1740628105952437749,0.18429075,-0.035153728,0.00958738,-0.47764325,4.891354,8.996213
1740628105952420041,0.18429075,-0.035153728,0.00958738,-0.47764325,4.891354,8.996213
1740628108332650583,0.18429075,-0.035153728,0.00958738,-0.8595184,5.2899885,7.8793178
1740628108339319250,0.18429075,-0.035153728,0.00958738,-0.78050977,5.231331,8.115147
1740628108339288542,0.18429075,-0.035153728,0.00958738,-0.78050977,5.231331,8.115147
1740628108359416584,0.18429075,-0.035153728,0.00958738,0.12689269,4.939238,9.105149
1740628108375175583,0.18429075,-0.035153728,0.00958738,0.30885202,4.9907136,8.662222
1740628108375177417,0.18429075,-0.035153728,0.00958738,0.30885202,4.9907136,8.662222
1740628108394406375,0.18429075,-0.035153728,0.00958738,0.23104046,4.8494554,8.232463
1740628108404174417,0.18429075,-0.035153728,0.00958738,0.12090719,4.868609,8.159439
1740628108404156167,0.18429075,-0.035153728,0.00958738,0.12090719,4.868609,8.159439
1740628108424710584,0.18429075,-0.035153728,0.00958738,-0.12808979,4.8458643,8.214506
1740628108434390292,0.18429075,-0.035153728,0.00958738,-0.045489833,4.9069166,8.243237
1740628108440131750,0.18429075,-0.035153728,0.00958738,0.0,4.9464207,8.244433
1740628108440233166,0.18429075,-0.035153728,0.00958738,0.0,4.9464207,8.244433
1740628108454035917,0.18429075,-0.035153728,0.00958738,-0.033518825,5.032612,8.330625
1740628108474055292,0.18429075,-0.035153728,0.00958738,0.039504327,4.950012,8.380903
1740628108484712542,0.18429075,-0.035153728,0.00958738,0.20350714,4.9188876,8.622718
1740628108494462500,0.18429075,-0.035153728,0.00958738,0.2645593,4.8877625,8.617929
1740628108504435916,0.18429075,-0.035153728,0.00958738,0.21547815,4.911705,8.366538
1740628108504314166,0.18429075,-0.035153728,0.00958738,0.21547815,4.911705,8.366538
1740628108504455708,0.18429075,-0.035153728,0.00958738,0.21547815,4.911705,8.366538
1740628108534615458,0.18429075,-0.035153728,0.00958738,0.031124622,4.9895163,7.726089
1740628108539523750,0.18429075,-0.035153728,0.00958738,-0.02873042,5.0134583,7.7308774
1740628108539515792,0.18429075,-0.035153728,0.00958738,-0.02873042,5.0134583,7.7308774
1740628108559560625,0.18429075,-0.035153728,0.00958738,-0.031124622,5.0505686,7.9032598
1740628108559502833,0.18429075,-0.035153728,0.00958738,-0.031124622,5.0505686,7.9032598
1740628108574199792,0.18429075,-0.035153728,0.00958738,0.007182605,5.0781016,8.020576
1740628108590516709,0.034088463,0.0127831735,-0.046871636,-0.033518825,5.0721164,8.057686
1740628108590664834,0.034088463,0.0127831735,-0.046871636,-0.033518825,5.0721164,8.057686
1740628108612313375,0.043675844,0.05539375,-0.046871636,0.025139118,5.0613422,8.169016
1740628108624237292,0.068176925,0.09267801,-0.049002163,-0.047884032,5.080496,8.431181
1740628108634285459,0.10333065,0.10013486,-0.043675844,-0.17238252,5.09127,8.463503
1740628108639476292,0.12357068,0.09054748,-0.03834952,-0.23104046,5.093664,8.508993
1740628108639488708,0.12357068,0.09054748,-0.03834952,-0.23104046,5.093664,8.508993
1740628108664442500,0.2130529,0.066046394,0.007456851,-0.12689269,5.1259856,8.3390045
1740628108674320875,0.23435818,0.08522116,0.0127831735,0.06703765,5.1439424,8.319851
1740628108674334458,0.23435818,0.08522116,0.0127831735,0.06703765,5.1439424,8.319851
1740628108690455167,0.23755397,0.12676647,-0.008522116,0.130484,5.1702785,8.018182
1740628108704582291,0.21198763,0.14913702,-0.037284255,0.130484,5.1678843,8.024167
1740628108715076291,0.20026971,0.15126756,-0.058589544,0.09696517,5.1475334,8.133103
1740628108724055667,0.21411815,0.16618125,-0.07137272,-0.06703765,5.1475334,8.194156
1740628108731982542,0.22370553,0.18216023,-0.070307456,-0.08738836,5.1607018,8.183381
1740628108739461500,0.24714136,0.21198763,-0.05539375,-0.005985504,5.2325277,8.111555
1740628108754905917,0.2609898,0.20879184,-0.06391586,0.074220255,5.2744265,7.890092
1740628108764512584,0.24714136,0.18748654,-0.08522116,-0.06943185,5.2444987,7.7189064
1740628108774196209,0.21518342,0.16298546,-0.094808534,-0.19273324,5.197812,7.667431
1740628108784713292,0.18216023,0.15126756,-0.094808534,-0.24061728,5.2145715,7.687782
1740628108791256083,0.16937704,0.14913702,-0.094808534,-0.24301147,5.267244,7.7105265
1740628108791258708,0.16937704,0.14913702,-0.094808534,-0.24301147,5.267244,7.7105265
1740628108811529042,0.12357068,0.11717909,-0.08841695,-0.35434186,5.3558292,7.65546
1740628108811513292,0.12357068,0.11717909,-0.08841695,-0.35434186,5.3558292,7.65546
1740628108824479125,0.09267801,0.07137272,-0.08948222,-0.4345476,5.4539914,7.6255326
1740628108824333417,0.09267801,0.07137272,-0.08948222,-0.4345476,5.4539914,7.6255326
1740628108845620334,0.05006743,0.02876214,-0.068176925,-0.6560113,5.497087,7.771579
1740628108860169625,0.034088463,0.015978966,-0.039414786,-0.59974754,5.436035,7.8888946
1740628108860172792,0.034088463,0.015978966,-0.039414786,-0.59974754,5.436035,7.8888946
1740628108874487958,0.03834952,0.022370555,-0.022370555,-0.46088383,5.505467,7.9906483
1740628108874479792,0.03834952,0.022370555,-0.022370555,-0.46088383,5.505467,7.9906483
1740628108900543250,0.05539375,0.06178534,-0.020240024,-0.46567222,5.459977,7.869741
1740628108900566375,0.05539375,0.06178534,-0.020240024,-0.46567222,5.459977,7.869741
1740628108914786958,0.04474111,0.066046394,-0.011717909,-0.49679685,5.436035,7.8996687
1740628108930834750,0.036218993,0.053263225,-0.0031957934,-0.4201824,5.436035,8.054094
1740628108930890250,0.036218993,0.053263225,-0.0031957934,-0.4201824,5.436035,8.054094
1740628108944589958,0.051132694,0.033023197,-0.004261058,-0.4189853,5.409699,8.1558485
1740628108962220292,0.07669904,0.051132694,0.0053263223,-0.2753332,5.410896,8.127118
1740628108962209084,0.07669904,0.051132694,0.0053263223,-0.2753332,5.410896,8.127118
1740628108980576833,0.113983296,0.05219796,-0.0063915867,-0.18195933,5.377377,8.048109
1740628108980709583,0.113983296,0.05219796,-0.0063915867,-0.18195933,5.377377,8.048109
1740628108994250250,0.12996227,0.041545313,-0.026631612,-0.32800564,5.439626,7.7213006
1740628109010361542,0.10546118,0.022370555,-0.020240024,-0.4177882,5.459977,7.5225816
1740628109010340375,0.10546118,0.022370555,-0.020240024,-0.4177882,5.459977,7.5225816
1740628109024425750,0.0628506,-0.0127831735,-0.011717909,-0.48602295,5.445612,7.607576
1740628109024591833,0.0628506,-0.0127831735,-0.011717909,-0.48602295,5.445612,7.607576
1740628109044451375,0.05219796,-0.023435818,0.010652645,-0.36631286,5.463568,7.955932
1740628109064938583,0.09374327,0.034088463,-0.00958738,-0.24181437,5.4911017,8.031349
1740628109064875125,0.09374327,0.034088463,-0.00958738,-0.24181437,5.4911017,8.031349
1740628109080375042,0.12250541,0.083090626,-0.027696876,-0.23702596,5.521029,7.9583263
1740628109080643417,0.12250541,0.083090626,-0.027696876,-0.23702596,5.521029,7.9583263
1740628109094148708,0.13954964,0.11504856,-0.043675844,-0.34117374,5.547365,7.777564
1740628109110769958,0.12676647,0.10972224,-0.05219796,-0.50038815,5.5485625,7.6494746
1740628109125077542,0.094808534,0.08628642,-0.04474111,-0.4441244,5.5641246,7.7105265
1740628109131221958,0.08735169,0.07243799,-0.0479369,-0.44771573,5.579687,7.789535
1740628109144447708,0.08948222,0.0479369,-0.05752428,-0.4237737,5.6539073,7.893683
1740628109154636625,0.10439592,0.04261058,-0.05752428,-0.51834464,5.693412,7.9272017
1740628109164695666,0.12250541,0.03195793,-0.05219796,-0.6919243,5.6790466,7.8912888
1740628109175296291,0.13954964,0.02876214,-0.035153728,-0.78290397,5.627571,7.813477
1740628109185126875,0.15126756,0.039414786,-0.00958738,-0.7302315,5.6096144,7.799112
1740628109195819042,0.1587244,0.05539375,0.010652645,-0.5231331,5.626374,7.7943234
1740628109201454167,0.1587244,0.06498113,0.014913702,-0.46926352,5.6467247,7.7667904
1740628109214570958,0.16192019,0.083090626,0.0053263223,-0.46686932,5.6946087,7.5908165
1740628109224643459,0.14807177,0.09374327,0.0010652645,-0.4309563,5.7125654,7.3789296
1740628109234727375,0.12463594,0.07456851,-0.004261058,-0.45489833,5.7305217,7.28795
1740628109245146959,0.094808534,0.06924219,-0.011717909,-0.5398925,5.6646814,7.303512
1740628109255283708,0.058589544,0.084155895,-0.011717909,-0.5566519,5.638345,7.3873096
1740628109260797250,0.040480047,0.08948222,-0.00958738,-0.62847793,5.6886234,7.445967
1740628109274628834,0.024501082,0.08841695,-0.004261058,-0.7278373,5.7257333,7.4854717
1740628109281643833,0.015978966,0.082025364,0.007456851,-0.81163436,5.7377043,7.410054
1740628109296085542,-0.008522116,0.07563378,0.03089267,-0.5770026,5.628768,7.40766
1740628109305719334,-0.017044231,0.05965481,0.01917476,-0.49559975,5.7137623,7.824251
1740628109311679583,-0.00958738,0.053263225,0.011717909,-0.47046062,5.734113,7.9906483
1740628109325633834,0.053263225,-0.015978966,-0.01917476,-0.5351041,5.6898203,8.244433
1740628109335585500,0.096939065,0.004261058,-0.02876214,-0.6596026,5.741296,8.197746
1740628109345972334,0.13741912,0.004261058,-0.017044231,-0.8283938,5.741296,7.9726915
1740628109351992041,0.16724652,-0.017044231,0.007456851,-0.8319851,5.7484784,7.8266454
1740628109360205875,0.1768339,-0.013848438,0.024501082,-0.51834464,5.887342,7.5453267
1740628109365107458,0.1768339,-0.013848438,0.024501082,-0.51834464,5.887342,7.5453267
1740628109382982625,0.14913702,-0.0031957934,0.004261058,-0.33758244,5.901707,7.299921
1740628109393144833,0.10333065,0.008522116,-0.018109497,-0.40462008,5.81791,7.1466923
1740628109402248208,0.049002163,-0.0031957934,-0.02876214,-0.44532153,5.74369,7.1059904
1740628109412629541,0.0010652645,-0.03195793,-0.039414786,-0.44891283,5.7424927,7.1023993
1740628109421175042,-0.04474111,-0.046871636,-0.051132694,-0.50876784,5.74369,7.0593038
1740628109435378416,-0.12037488,-0.0010652645,-0.04474111,-0.59256494,5.8215013,7.088034
1740628109445863875,-0.15765914,0.02130529,-0.035153728,-0.81761986,5.851429,7.439982
1740628109455055667,-0.16724652,0.018109497,-0.024501082,-1.7190368,3.120842,9.42238
1740628109461943791,-0.15339808,0.024501082,-0.0063915867,-1.1468226,4.0306387,9.350554
1740628109465964250,-0.08628642,-0.080960095,-0.0031957934,-0.5650316,5.577293,8.930372
1740628109475562958,0.03089267,-0.31638354,-0.027696876,0.079008654,6.7360864,9.226056
1740628109475565917,0.03089267,-0.31638354,-0.027696876,0.079008654,6.7360864,9.226056
1740628109475635500,0.03089267,-0.31638354,-0.027696876,0.079008654,6.7360864,9.226056
1740628109475633542,0.03089267,-0.31638354,-0.027696876,0.079008654,6.7360864,9.226056
1740628109475657875,0.03089267,-0.31638354,-0.027696876,0.079008654,6.7360864,9.226056
1740628109534260083,0.49854377,0.02130529,-0.10333065,-0.36631286,6.075287,6.4583592
1740628109544442625,0.38562572,0.046871636,-0.098004326,-0.581791,6.1064115,6.2249246
1740628109555270958,0.25033715,0.066046394,-0.08522116,-0.7314286,6.171055,6.0118403
1740628109564193834,0.10865697,0.03195793,-0.066046394,-0.85473,6.1926026,5.8226986
1740628109575206666,-0.036218993,-0.011717909,-0.03834952,-0.8403648,6.1985884,5.8334723
1740628109584194833,-0.17576863,-0.03195793,-0.020240024,-0.6991069,6.194997,6.0202203
1740628109594386875,-0.29827404,-0.03195793,-0.023435818,-0.6619968,6.232107,6.3566055
1740628109604523500,-0.38562572,-0.024501082,-0.03834952,-0.7757214,6.2225304,6.8522053
1740628109614453875,-0.42290998,0.0010652645,-0.043675844,-0.89662856,6.157887,7.356185
1740628109624170542,-0.40373522,0.01917476,-0.033023197,-1.0295067,6.077681,7.8517847
1740628109634618083,-0.33129725,0.02876214,-0.011717909,-1.0570401,6.0477533,8.159439
1740628109644806042,-0.2247708,0.020240024,0.011717909,-0.9947908,6.027403,8.337808
1740628109654761667,-0.10972224,0.011717909,0.026631612,-0.80445176,6.0010667,8.309077
1740628109660408250,-0.054328486,0.004261058,0.023435818,-0.7625532,6.0106435,8.282741
1740628109675790459,0.0958738,0.0010652645,0.0127831735,-0.6931214,5.9962783,7.97748
1740628109680433375,0.14168017,0.0010652645,0.00958738,-0.61291564,5.955577,7.764396
1740628109695578333,0.27696875,0.017044231,-0.004261058,-0.61291564,6.0082493,7.4926543
1740628109705005500,0.34408042,0.04580637,-0.018109497,-0.7062895,6.0860605,7.3298483
1740628109711921750,0.38136467,0.11504856,-0.026631612,-0.91817635,6.0848637,7.2101383
1740628109721454042,0.3930826,0.14594123,-0.025566347,-0.90381116,6.0836663,7.135918
1740628109731758916,0.42290998,0.06711166,-0.025566347,-0.8535329,6.1112,6.326678
1740628109741449500,0.4111921,0.0031957934,-0.02130529,-0.8319851,6.099229,6.253655
1740628109752769917,0.33768883,-0.034088463,-0.011717909,-0.5674258,6.1064115,6.517017
1740628109761525542,0.24394555,0.008522116,-0.02876214,-0.35673606,6.1746464,6.775591
1740628109773993417,0.17896444,-0.00958738,-0.06391586,-0.37708676,6.199785,7.0365586
1740628109778565458,0.165116,-0.060720075,-0.083090626,-0.4369418,6.2021794,7.133524
1740628109795481333,0.19707392,-0.36964676,-0.15659387,-0.39983168,6.101623,7.441179
1740628109801708459,0.2130529,-0.4165184,-0.17896444,-0.3842694,6.0645127,7.478289
1740628109812729583,0.24714136,-0.45486793,-0.21837921,-0.37110126,6.0681043,7.547721
1740628109821769291,0.29507825,-0.4250405,-0.24501082,-0.33638534,6.0381765,7.553706
1740628109832748750,0.3568636,-0.35153726,-0.2514024,-0.23463176,6.0130377,7.3059063
1740628109841600500,0.406931,-0.25353295,-0.24927188,-0.1328782,5.9962783,7.001843
1740628109855822167,0.41225734,-0.08522116,-0.24927188,-0.18195933,6.1770406,6.637924
1740628109865194791,0.35792887,0.022370555,-0.2428803,-0.23104046,6.2620344,6.579266
1740628109872116375,0.32490566,0.060720075,-0.23861924,-0.23942018,6.2620344,6.5744777
1740628109882933166,0.25566345,0.096939065,-0.22796659,-0.31244332,6.3063273,6.645107
1740628109893234417,0.19387813,0.08628642,-0.21518342,-0.36750996,6.2991447,6.908469
1740628109903702416,0.1438107,0.054328486,-0.19068234,-0.49440265,6.271611,7.1167645
1740628109915291334,0.10972224,-0.056459017,-0.13741912,-0.5398925,6.2524576,7.177817
1740628109921618500,0.10759171,-0.11611383,-0.12037488,-0.52073884,6.277597,7.28795
1740628109935076084,0.10759171,-0.24181503,-0.09267801,-0.51834464,6.3578024,7.4244194
1740628109944933875,0.11930962,-0.24501082,-0.084155895,-0.5686229,6.3913217,7.515399
1740628109957639833,0.13102753,-0.18748654,-0.06498113,-0.6464345,6.4404025,7.6291237
1740628109965745334,0.15659387,-0.0958738,-0.03834952,-0.7266402,6.481104,7.6494746
1740628109975517500,0.1917476,-0.034088463,-0.004261058,-0.6607997,6.5146227,7.7009497
1740628109980926042,0.2130529,-0.01917476,0.010652645,-0.59495914,6.5086374,7.7368627
1740628109992496250,0.23755397,0.024501082,0.03089267,-0.4189853,6.4487824,7.679402
1740628109995190958,0.23755397,0.053263225,0.037284255,-0.3196259,6.4140663,7.562086
1740628110012126166,0.2034655,0.098004326,0.03089267,0.034715924,6.4380083,7.2472486
1740628110020954875,0.16298546,0.08628642,-0.0010652645,0.2705448,6.482301,7.241263
1740628110025854333,0.14168017,0.07989483,-0.027696876,0.3854665,6.4404025,7.098808
1740628110043527750,0.051132694,0.049002163,-0.12783173,0.31483752,6.3458314,6.71813
1740628110052880542,-0.05539375,0.0127831735,-0.18429075,0.10295067,6.3182983,6.493075
1740628110066452708,-0.2396845,-0.058589544,-0.23329292,-0.29688102,6.353014,6.59004
1740628110075604000,-0.3472762,-0.10439592,-0.24181503,-0.5470751,6.385336,6.7684083
1740628110081667750,-0.3920173,-0.12676647,-0.24501082,-0.6739678,6.4260373,6.8773446
1740628110095341333,-0.49002165,-0.15020229,-0.21518342,-1.1109096,6.3661823,7.41604
1740628110101199625,-0.50600064,-0.14168017,-0.18855181,-1.3263878,6.3218894,7.669825
1740628110110689250,-0.44847634,0.058589544,0.07882957,-2.255338,5.5988407,8.896853
1740628110121678250,-0.33449304,-0.014913702,0.16831179,-1.6567876,6.129156,8.451532
1740628110135109125,0.0010652645,-0.18002969,0.22690132,-0.35673606,6.9240313,9.185355
1740628110145492875,0.12357068,-0.111852765,0.16618125,-0.20111294,6.5720835,8.37372
1740628110155687541,0.20026971,-0.09054748,0.128897,-0.25977087,6.278794,8.057686
1740628110165848125,0.24501082,-0.036218993,0.10333065,-0.17357962,6.220136,7.9547353
1740628110175028708,0.28655612,0.02876214,0.070307456,-0.007182605,6.2500634,7.813477
1740628110185703458,0.3334278,0.08628642,0.037284255,0.025139118,6.30513,7.502231
1740628110194993583,0.35579833,0.14274544,0.010652645,-0.039504327,6.3661823,6.9407907
1740628110204604875,0.3206446,0.17576863,-0.0063915867,-0.12449849,6.35062,6.4152637
1740628110215006666,0.2396845,0.165116,-0.024501082,-0.25498247,6.35062,6.2763996
1740628110225108084,0.15020229,0.12996227,-0.03834952,-0.31124622,6.3326635,6.343437
1740628110233574625,0.112918034,0.112918034,-0.043675844,-0.36391866,6.3302693,6.542156
1740628110243808292,0.070307456,0.112918034,-0.04474111,-0.5734113,6.337452,6.931214
1740628110254937458,0.0628506,0.16618125,-0.0127831735,-0.82360536,6.3829417,7.2113357
1740628110265304125,0.07350325,0.14594123,0.020240024,-0.89423436,6.408081,7.1514807
1740628110274510833,0.08948222,0.094808534,0.04261058,-0.78290397,6.4224463,7.204153
1740628110285186333,0.111852765,0.046871636,0.041545313,-0.5434838,6.465542,7.289147
1740628110294509750,0.15020229,-0.013848438,0.017044231,-0.47285482,6.587646,7.2388687
1740628110305249500,0.18429075,-0.05539375,-0.020240024,-0.47644615,6.567295,7.2580223
1740628110315151666,0.20772657,-0.03089267,-0.049002163,-0.62129533,6.5457473,7.141904
1740628110325229791,0.2247708,-0.03195793,-0.056459017,-0.7649474,6.56131,6.9623384
1740628110335016334,0.23222765,-0.070307456,-0.046871636,-0.85473,6.5840545,6.789956
1740628110345229458,0.21837921,-0.10226539,-0.03195793,-0.8595184,6.609194,6.646304
1740628110352433250,0.20026971,-0.10759171,-0.023435818,-0.82719666,6.647501,6.669049
1740628110365269792,0.15659387,-0.07456851,-0.004261058,-0.5291186,6.68102,6.8869214
1740628110374483041,0.15446335,-0.046871636,-0.00958738,-0.37229836,6.6367273,7.019799
1740628110385359291,0.16937704,-0.00958738,-0.025566347,-0.34715924,6.540959,7.1431007
1740628110393953916,0.19920446,0.0031957934,-0.05219796,-0.40701428,6.50744,7.0940194
1740628110405181375,0.22583607,-0.02130529,-0.07137272,-0.62728083,6.540959,7.0209966
1740628110414607750,0.23435818,-0.034088463,-0.07137272,-0.6332663,6.591237,6.873753
1740628110425221375,0.23861924,-0.060720075,-0.070307456,-0.5770026,6.631939,6.7444663
1740628110434368667,0.23435818,-0.09054748,-0.06711166,-0.5554548,6.7145386,6.6726403
1740628110445308584,0.21837921,-0.0958738,-0.07137272,-0.5446809,6.7708025,6.5804634
1740628110455342167,0.1949434,-0.08735169,-0.07669904,-0.5722142,6.7719994,6.5110316
1740628110465823042,0.17257284,-0.07456851,-0.07882957,-0.5542577,6.719327,6.5337763
1740628110475543125,0.15765914,-0.07989483,-0.082025364,-0.5315128,6.7564373,6.5385647
1740628110480480042,0.15020229,-0.082025364,-0.083090626,-0.5279215,6.801927,6.5505357
1740628110491909000,0.12463594,-0.06391586,-0.08735169,-0.49799395,6.894104,6.6786256
1740628110504766959,0.113983296,-0.039414786,-0.096939065,-0.56982,6.8749504,6.7600284
1740628110514695875,0.12357068,-0.03834952,-0.10439592,-0.7314286,6.769605,6.767211
1740628110524639084,0.12463594,-0.035153728,-0.10652645,-0.90381116,6.7731967,6.637924
1740628110534622084,0.113983296,-0.051132694,-0.094808534,-0.9792285,6.787562,6.477513
1740628110544713000,0.08735169,-0.07563378,-0.07989483,-1.055843,6.8366427,6.3721676
1740628110555782291,0.05219796,-0.09054748,-0.05752428,-1.043872,6.839037,6.3661823
1740628110565794709,0.01917476,-0.08948222,-0.033023197,-0.961272,6.8462195,6.3925185
1740628110575804292,-0.0053263223,-0.07669904,-0.011717909,-0.8858546,6.841431,6.421249
1740628110585726167,-0.025566347,-0.054328486,0.0053263223,-0.7733272,6.872556,6.530185
1740628110595256042,-0.035153728,-0.043675844,0.0127831735,-0.700304,6.867768,6.5744777
1740628110601309125,-0.04261058,-0.036218993,0.018109497,-0.59256494,6.8557963,6.5804634
1740628110615632250,-0.056459017,-0.02130529,0.008522116,-0.4417302,6.7803793,6.7504516
1740628110624941667,-0.058589544,-0.008522116,0.0053263223,-0.36750996,6.7624226,6.885724
1740628110634661459,-0.040480047,-0.00958738,-0.008522116,-0.2789245,6.7480574,7.0365586
1740628110641395292,-0.024501082,-0.017044231,-0.020240024,-0.25378537,6.733692,7.061698
1740628110652422666,0.008522116,-0.034088463,-0.046871636,-0.23463176,6.733692,7.0006456
1740628110665214666,0.033023197,-0.026631612,-0.084155895,-0.35793316,6.861782,6.7684083
1740628110675536375,0.034088463,-0.0053263223,-0.09374327,-0.51355624,6.8785415,6.6367273
1740628110685590334,0.02130529,0.010652645,-0.084155895,-0.7410054,6.9024835,6.5708866
1740628110695991833,0.00958738,-0.0031957934,-0.06711166,-0.91937345,6.8881183,6.494272
1740628110705354208,-0.007456851,-0.027696876,-0.0479369,-1.0773908,6.8881183,6.506243
1740628110712716708,-0.015978966,-0.03089267,-0.037284255,-1.0702082,6.853402,6.4751186
1740628110721501584,-0.035153728,-0.024501082,-0.010652645,-0.93493575,6.8007298,6.4906807
1740628110733610708,-0.05006743,-0.0063915867,0.0063915867,-0.7553706,6.7971387,6.4882865
1740628110743459917,-0.06711166,0.008522116,0.013848438,-0.60932434,6.76362,6.4260373
1740628110755825667,-0.10865697,0.022370555,0.0031957934,-0.6356605,6.7588315,6.4427967
1740628110765519166,-0.13635385,0.007456851,-0.004261058,-0.7098808,6.769605,6.5589156
1740628110773048583,-0.14913702,0.0,-0.0053263223,-0.7398083,6.76362,6.585252
1740628110785133000,-0.16192019,0.024501082,0.020240024,-0.7026982,6.715736,6.8426285
1740628110785027292,-0.16192019,0.024501082,0.020240024,-0.7026982,6.715736,6.8426285
1740628110805455708,-0.1470065,0.07669904,0.043675844,-0.5638345,6.7229185,6.867768
1740628110813336584,-0.1470065,0.07456851,0.041545313,-0.5267244,6.71813,6.882133
1740628110817290084,-0.1470065,0.07669904,0.035153728,-0.48243165,6.719327,6.9467764
1740628110830348917,-0.14274544,0.08841695,0.018109497,-0.46806642,6.683414,7.1023993
1740628110844569708,-0.094808534,0.08735169,-0.0031957934,-0.52073884,6.679823,7.16824
1740628110854510459,-0.07137272,0.07137272,-0.007456851,-0.5626374,6.655881,7.1550717
1740628110865112541,-0.05219796,0.056459017,-0.013848438,-0.61411273,6.6654577,7.243657
1740628110874801792,-0.026631612,0.041545313,-0.01917476,-0.6512229,6.64391,7.3178773
1740628110884681125,0.014913702,0.026631612,-0.01917476,-0.59735334,6.59004,7.3537903
1740628110895068292,0.05965481,0.02876214,-0.018109497,-0.46567222,6.6067996,7.357382
1740628110904574708,0.099069595,0.043675844,-0.026631612,-0.36990416,6.647501,7.2149267
1740628110914500416,0.12144015,0.056459017,-0.04261058,-0.35553896,6.7013707,7.0221934
1740628110924823584,0.13102753,0.06178534,-0.06391586,-0.4285621,6.6774287,7.050924
1740628110934504250,0.14274544,0.06498113,-0.080960095,-0.56982,6.6427126,7.0545154
1740628110940707834,0.15339808,0.06711166,-0.08628642,-0.6404489,6.634333,7.0329676
1740628110946448500,0.16405073,0.06924219,-0.08948222,-0.700304,6.647501,6.9719152
1740628110965317167,0.18002969,0.07563378,-0.082025364,-0.9624691,6.757634,6.6163764
1740628110974325834,0.15765914,0.096939065,-0.070307456,-1.0450691,6.7983356,6.3721676
1740628110985092666,0.112918034,0.113983296,-0.054328486,-1.0809821,6.8103065,6.197391
1740628110985008833,0.112918034,0.113983296,-0.054328486,-1.0809821,6.8103065,6.197391
1740628111004692292,0.013848438,0.12037488,-0.02130529,-0.8655039,6.83784,6.408081
1740628111014717875,-0.026631612,0.13528858,-0.011717909,-0.6655881,6.870162,6.5708866
1740628111025120334,-0.043675844,0.1438107,-0.025566347,-0.48722005,6.7684083,6.7863646
1740628111034770333,-0.02876214,0.16405073,-0.054328486,-0.39384618,6.6870055,6.871359
1740628111040477041,-0.017044231,0.17257284,-0.06924219,-0.4285621,6.659472,6.7827735
1740628111052968375,-0.002130529,0.16405073,-0.09054748,-0.5781997,6.6989765,6.4619503
1740628111060836958,-0.02130529,0.12783173,-0.101200126,-0.6967127,6.7121444,6.3242836
1740628111075062542,-0.0777643,0.09161274,-0.11824436,-0.79966336,6.7612257,6.281188
1740628111084552542,-0.112918034,0.09054748,-0.12783173,-0.89064306,6.813898,6.281188
1740628111094584125,-0.1438107,0.099069595,-0.12676647,-1.021127,6.8186865,6.3123126
1740628111105279834,-0.1736381,0.1107875,-0.11717909,-1.0929531,6.8043213,6.423643
1740628111115063625,-0.19813919,0.128897,-0.10546118,-1.1312603,6.7743936,6.5804634
1740628111124925875,-0.21092236,0.13528858,-0.094808534,-1.1947067,6.727707,6.70975
1740628111135565333,-0.21518342,0.12463594,-0.083090626,-1.3227965,6.655881,6.8067155
1740628111140863417,-0.21624869,0.10972224,-0.07563378,-1.4137762,6.658275,6.885724
1740628111154795750,-0.2034655,0.051132694,-0.041545313,-1.4808137,6.647501,7.3322425
1740628111165509834,-0.16298546,0.037284255,-0.02130529,-1.4903905,6.621165,7.553706
1740628111174926625,-0.09374327,0.011717909,0.0053263223,-1.4927847,6.5936313,7.548918
1740628111185167125,-0.029827405,-0.004261058,0.03834952,-1.3587095,6.6247563,7.4711065
1740628111192273000,-0.0031957934,-0.0063915867,0.05006743,-1.2533646,6.645107,7.4088573
1740628111202410958,0.040480047,-0.00958738,0.0628506,-1.0989386,6.6786256,7.1873937
1740628111215906833,0.07669904,-0.008522116,0.06498113,-0.93613285,6.625953,6.969521
1740628111225995166,0.082025364,-0.014913702,0.06711166,-0.90021986,6.682217,6.7109475
1740628111235001708,0.06178534,-0.027696876,0.07137272,-0.78410107,6.6989765,6.555324
1740628111245224166,0.035153728,-0.035153728,0.06498113,-0.6332663,6.692991,6.591237
1740628111255148125,0.010652645,-0.029827405,0.05006743,-0.48243165,6.7013707,6.70975
1740628111265164833,-0.0053263223,-0.017044231,0.027696876,-0.4165911,6.683414,6.7564373
1740628111274590167,-0.0127831735,-0.0127831735,0.0031957934,-0.40821138,6.6522894,6.9012866
1740628111285233667,-0.011717909,-0.0063915867,-0.025566347,-0.40701428,6.625953,7.100005
1740628111295729583,0.0063915867,0.004261058,-0.05752428,-0.44771573,6.6067996,7.2029557
1740628111305722459,0.033023197,0.0031957934,-0.08841695,-0.59855044,6.5684924,7.2304893
1740628111315495500,0.060720075,0.017044231,-0.113983296,-0.7673417,6.5840545,7.2364745
1740628111325890916,0.08735169,0.043675844,-0.1257012,-0.9636662,6.6067996,7.101202
1740628111335611875,0.10013486,0.05539375,-0.11717909,-1.1647792,6.649895,7.098808
1740628111341627167,0.10439592,0.05539375,-0.10865697,-1.2198458,6.6726403,7.141904
1740628111355802959,0.12783173,0.03834952,-0.07882957,-1.1959038,6.597223,7.243657
1740628111361633834,0.14594123,0.027696876,-0.07137272,-1.0965444,6.5804634,7.2352777
1740628111372667125,0.18748654,0.014913702,-0.0628506,-1.0366893,6.597223,7.1407065
1740628111381220333,0.21411815,0.013848438,-0.060720075,-0.93254155,6.7025676,6.8869214
1740628111392341625,0.21624869,0.017044231,-0.068176925,-0.8726865,6.777985,6.6187706
1740628111400881167,0.2066613,0.023435818,-0.0777643,-0.91099375,6.7384806,6.409278
1740628111414561500,0.16405073,0.043675844,-0.08841695,-0.93732995,6.7121444,6.325481
1740628111425242250,0.13848437,0.058589544,-0.099069595,-1.0989386,6.7648168,6.2608376
1740628111434469292,0.1107875,0.06498113,-0.10333065,-1.3192052,6.8162923,6.2608376
1740628111445403875,0.0777643,0.06711166,-0.09267801,-1.5478514,6.8366427,6.173449
1740628111454436708,0.04474111,0.05539375,-0.066046394,-1.6998832,6.8426285,6.205771
1740628111460653000,0.00958738,0.04261058,-0.037284255,-1.7860745,6.8581905,6.247669
1740628111475041791,-0.022370555,0.03089267,-0.008522116,-1.8794483,6.8438253,6.244078
1740628111486773708,-0.05219796,0.010652645,0.024501082,-1.8555063,6.8306575,6.223727
1740628111495156250,-0.08628642,-0.008522116,0.060720075,-1.7884687,6.8246717,6.232107
1740628111505159708,-0.12144015,-0.008522116,0.09161274,-1.6603789,6.825869,6.295553
1740628111514573750,-0.14913702,-0.00958738,0.11717909,-1.5406688,6.7923503,6.363788
1740628111525254250,-0.165116,-0.011717909,0.13848437,-1.3850456,6.752846,6.467936
1740628111525117792,-0.165116,-0.011717909,0.13848437,-1.3850456,6.752846,6.467936
1740628111544898917,-0.18748654,-0.014913702,0.1555286,-0.9588778,6.7624226,6.68102
1740628111552825625,-0.18748654,-0.013848438,0.15446335,-0.8750807,6.7684083,6.8007298
1740628111565518333,-0.17150758,-0.0053263223,0.14274544,-0.7410054,6.7767878,7.0545154
1740628111575519042,-0.14274544,-0.01917476,0.13528858,-0.62967503,6.751649,7.1143703
1740628111585698334,-0.10972224,-0.039414786,0.13422333,-0.46926352,6.7827735,7.067683
1740628111595530625,-0.08948222,-0.06178534,0.11930962,-0.24540567,6.789956,6.930017
1740628111605814833,-0.08735169,-0.06498113,0.083090626,-0.03232172,6.7923503,6.8342485
1740628111614888292,-0.09374327,-0.06178534,0.027696876,-0.04189853,6.751649,6.7983356
1740628111621776958,-0.09374327,-0.05965481,0.0,-0.20590134,6.6774287,6.7384806
1740628111635659916,-0.10865697,-0.033023197,-0.06391586,-0.47285482,6.6067996,6.7504516
1740628111640243666,-0.11717909,-0.018109497,-0.0777643,-0.62009823,6.6079965,6.7588315
1740628111654403125,-0.13635385,0.002130529,-0.094808534,-1.0187328,6.56131,6.895301
1740628111664624209,-0.13635385,-0.0063915867,-0.09267801,-1.2054806,6.555324,7.01142
1740628111674462167,-0.128897,-0.00958738,-0.07669904,-1.2868834,6.5110316,7.2125325
1740628111684552083,-0.10013486,-0.004261058,-0.05965481,-1.2210429,6.5002575,7.289147
1740628111694450125,-0.0628506,0.007456851,-0.051132694,-1.1384429,6.4906807,7.2819643
1740628111704271375,-0.034088463,0.018109497,-0.054328486,-1.0594343,6.4966664,7.2472486
1740628111714245417,-0.014913702,0.03089267,-0.06498113,-1.0570401,6.527791,7.2747817
1740628111724250916,0.0063915867,0.037284255,-0.070307456,-1.0785879,6.506243,7.371747
1740628111734222875,0.03834952,0.037284255,-0.06498113,-1.0714053,6.4978633,7.4028716
1740628111745186084,0.080960095,0.025566347,-0.056459017,-0.9923966,6.503849,7.418434
1740628111754887083,0.12357068,0.017044231,-0.05539375,-0.8858546,6.5816603,7.4004774
1740628111764952541,0.16405073,0.018109497,-0.06391586,-0.81642276,6.63553,7.2867527
1740628111774758000,0.19813919,0.0127831735,-0.080960095,-0.8643068,6.683414,7.053318
1740628111784681209,0.21731395,0.002130529,-0.09374327,-1.0043676,6.6642604,6.6989765
1740628111795222166,0.20772657,0.0010652645,-0.094808534,-1.1623849,6.7145386,6.3087215
1740628111805258375,0.16937704,0.013848438,-0.08841695,-1.2593501,6.7492547,6.051345
1740628111815683083,0.10439592,0.023435818,-0.0777643,-1.3215994,6.7444663,5.8203044
1740628111825524458,0.02876214,0.03195793,-0.06711166,-1.4532804,6.739678,5.7808
1740628111835394625,-0.053263225,0.03834952,-0.051132694,-1.5442601,6.731298,5.877765
1740628111845074416,-0.12357068,0.03089267,-0.025566347,-1.6484078,6.721721,6.0130377
1740628111855053791,-0.18322548,0.02130529,0.007456851,-1.6543933,6.6965823,6.160281
1740628111865362250,-0.23116238,0.008522116,0.04261058,-1.5885528,6.6905966,6.337452
1740628111875433083,-0.26844665,-0.004261058,0.06924219,-1.3706805,6.647501,6.7265096
1740628111885531458,-0.28442562,-0.020240024,0.08522116,-1.2318168,6.59004,6.993463
1740628111892643625,-0.28442562,-0.029827405,0.08948222,-1.1815386,6.5720835,7.088034
1740628111901567750,-0.2514024,-0.05219796,0.094808534,-0.973243,6.554127,7.4148426
1740628111915166292,-0.21198763,-0.068176925,0.09267801,-0.8678981,6.5325794,7.529764
1740628111925389416,-0.16192019,-0.09267801,0.082025364,-0.7015011,6.5469446,7.583634
1740628111935798334,-0.113983296,-0.099069595,0.06924219,-0.6631939,6.549339,7.445967
1740628111941522375,-0.08841695,-0.101200126,0.058589544,-0.641646,6.5325794,7.37055
1740628111951658624,-0.0479369,-0.096939065,0.043675844,-0.6548142,6.471527,7.121553
1740628111963576167,-0.026631612,-0.070307456,0.03089267,-0.6907272,6.481104,7.0700774
1740628111967928708,-0.022370555,-0.058589544,0.024501082,-0.70509243,6.481104,6.9838862
1740628111980253542,-0.024501082,-0.040480047,0.00958738,-0.7493851,6.455965,6.8785415
1740628111995029875,-0.043675844,-0.040480047,-0.01917476,-0.8583213,6.4990606,6.8581905
1740628112004665375,-0.056459017,-0.035153728,-0.027696876,-0.93493575,6.549339,6.895301
1740628112014780167,-0.066046394,-0.026631612,-0.039414786,-1.1504139,6.5696893,6.839037
1740628112025618667,-0.07563378,-0.029827405,-0.041545313,-1.3395559,6.5720835,6.8462195
1740628112034507959,-0.08522116,-0.037284255,-0.027696876,-1.4065934,6.5325794,6.933608
1740628112044740875,-0.09054748,-0.03834952,-0.004261058,-1.4041992,6.531382,7.0006456
1740628112055434042,-0.084155895,-0.043675844,0.036218993,-1.3575124,6.518214,7.015011
1740628112064598625,-0.07456851,-0.05965481,0.06178534,-1.2330139,6.471527,7.0784574
1740628112074567416,-0.06711166,-0.06391586,0.07456851,-1.0283096,6.4427967,7.1023993
1740628112084554250,-0.06391586,-0.05752428,0.07669904,-0.8678981,6.4260373,7.101202
1740628112095080084,-0.056459017,-0.05539375,0.070307456,-0.6955156,6.421249,7.0928226
1740628112105420791,-0.05219796,-0.05539375,0.053263225,-0.5734113,6.408081,7.183802
1740628112114099000,-0.040480047,-0.051132694,0.02876214,-0.5662287,6.3913217,7.2939353
1740628112122331500,-0.034088463,-0.049002163,0.015978966,-0.5805939,6.38773,7.338228
1740628112134668500,-0.004261058,-0.03195793,-0.010652645,-0.6584055,6.420052,7.3777328
1740628112144593542,0.020240024,-0.01917476,-0.022370555,-0.6967127,6.405687,7.382521
1740628112154225125,0.04580637,-0.014913702,-0.034088463,-0.7553706,6.3745623,7.4112515
1740628112164929750,0.070307456,-0.0127831735,-0.04474111,-0.8487445,6.3925185,7.36217
1740628112174152667,0.09267801,-0.010652645,-0.0479369,-0.8870517,6.397307,7.253234
1740628112184459791,0.1107875,-0.013848438,-0.0479369,-0.89184016,6.4344172,7.1347213
1740628112194273291,0.12037488,-0.0053263223,-0.049002163,-0.8870517,6.4487824,7.0066314
1740628112204333416,0.11930962,0.010652645,-0.054328486,-0.92655605,6.4583592,6.9252286
1740628112215360125,0.10759171,0.023435818,-0.060720075,-0.9828198,6.5026517,6.75524
1740628112225139500,0.08735169,0.033023197,-0.06178534,-1.0666169,6.5110316,6.7468605
1740628112235159666,0.06391586,0.046871636,-0.05539375,-1.0821792,6.4906807,6.8366427
1740628112244526792,0.049002163,0.056459017,-0.05006743,-1.103727,6.503849,6.8773446
1740628112254409458,0.04580637,0.05219796,-0.0479369,-1.1360487,6.537368,6.8007298
1740628112260603750,0.041545313,0.046871636,-0.04580637,-1.1456255,6.5349736,6.7851677
1740628112275708417,0.01917476,0.036218993,-0.039414786,-1.1791444,6.5864487,6.7121444
1740628112285482917,-0.002130529,0.03834952,-0.03195793,-1.2054806,6.597223,6.683414
1740628112295517667,-0.022370555,0.04474111,-0.015978966,-1.2593501,6.563704,6.7025676
1740628112305800542,-0.037284255,0.03834952,0.0,-1.2509704,6.531382,6.7743936
1740628112315785250,-0.051132694,0.025566347,0.013848438,-1.2114661,6.518214,6.7851677
1740628112325998375,-0.06391586,0.020240024,0.025566347,-1.0905589,6.5122285,6.873753
1740628112335055750,-0.07669904,0.017044231,0.026631612,-0.9804256,6.495469,6.92044
1740628112341551333,-0.080960095,0.017044231,0.025566347,-0.93493575,6.4978633,6.933608
1740628112353634458,-0.08841695,0.025566347,0.020240024,-0.8810662,6.5098343,6.977901
1740628112365195666,-0.082025364,0.034088463,0.008522116,-0.81642276,6.459556,7.1395097
1740628112374450375,-0.06711166,0.03195793,0.0010652645,-0.7625532,6.445191,7.133524
1740628112385007416,-0.053263225,0.024501082,-0.00958738,-0.7146692,6.4583592,7.1706343
1740628112394605625,-0.039414786,0.02130529,-0.025566347,-0.7326257,6.445191,7.144298
1740628112404807833,-0.025566347,0.013848438,-0.039414786,-0.82480246,6.479907,7.1383123
1740628112414721667,-0.015978966,0.008522116,-0.049002163,-0.91219085,6.47033,7.1610575
1740628112425323791,-0.007456851,0.00958738,-0.05219796,-0.94930094,6.457162,7.181408
1740628112434582083,0.008522116,0.015978966,-0.053263225,-1.0055647,6.4463882,7.243657
1740628112445080250,0.02876214,0.015978966,-0.05219796,-1.115698,6.4140663,7.2951326
1740628112454798292,0.05006743,0.00958738,-0.04474111,-1.1647792,6.429629,7.228095
1740628112461308625,0.05965481,0.004261058,-0.040480047,-1.1587936,6.43322,7.2005615
1740628112474493500,0.084155895,-0.014913702,-0.03089267,-1.1432313,6.467936,7.117962
1740628112484616375,0.09054748,-0.01917476,-0.02876214,-1.1504139,6.518214,7.029376
1740628112495186875,0.084155895,-0.0127831735,-0.027696876,-1.1707647,6.5230026,6.853402
1740628112504712084,0.07882957,-0.007456851,-0.023435818,-1.1887212,6.5122285,6.7588315
1740628112514902958,0.06178534,-0.0031957934,-0.013848438,-1.2294226,6.5361705,6.691794
1740628112525204250,0.037284255,0.002130529,-0.0031957934,-1.2389994,6.5684924,6.5720835
1740628112534628250,0.011717909,-0.004261058,0.004261058,-1.2880806,6.573281,6.5265937
1740628112545272958,-0.020240024,-0.007456851,0.014913702,-1.3024458,6.564901,6.5218053
1740628112555044000,-0.056459017,-0.008522116,0.029827405,-1.2773066,6.588843,6.5098343
1740628112565538125,-0.08628642,-0.008522116,0.040480047,-1.270124,6.5864487,6.482301
1740628112574893958,-0.12250541,-0.013848438,0.053263225,-1.2940661,6.5684924,6.576872
1740628112585623166,-0.15765914,-0.007456851,0.070307456,-1.2521675,6.5589156,6.6786256
1740628112595531250,-0.18429075,0.0053263223,0.084155895,-1.127669,6.5241995,6.7372837
1740628112605675167,-0.20240025,0.015978966,0.08948222,-0.9780314,6.4463882,6.8426285
1740628112614890542,-0.21624869,0.027696876,0.084155895,-0.85473,6.4152637,6.841431
1740628112620960458,-0.2247708,0.03195793,0.0777643,-0.80086046,6.4152637,6.8198833
1740628112633304417,-0.24074976,0.039414786,0.0628506,-0.7098808,6.3889275,6.8569937
1740628112645321584,-0.26631612,0.053263225,0.036218993,-0.6464345,6.3805475,7.103596
1740628112652432708,-0.27057716,0.0628506,0.027696876,-0.6979098,6.3685765,7.2328835
1740628112660326958,-0.26205507,0.08735169,0.014913702,-0.82001406,6.2979474,7.442376
1740628112675726458,-0.22264028,0.11504856,0.0053263223,-0.81761986,6.2380924,7.548918
1740628112681621958,-0.2034655,0.11611383,0.0010652645,-0.80325466,6.218939,7.5584946
1740628112690647792,-0.16618125,0.10972224,-0.013848438,-0.7422025,6.233304,7.5309615
1740628112700807833,-0.13741912,0.08841695,-0.036218993,-0.80205756,6.254852,7.633912
1740628112712992625,-0.101200126,0.07243799,-0.05752428,-0.90620536,6.247669,7.78355
1740628112721062000,-0.053263225,0.06391586,-0.070307456,-1.0726024,6.1985884,7.8410106
1740628112731471292,0.004261058,0.04474111,-0.06711166,-1.2186487,6.1746464,7.7308774
1740628112741428083,0.05006743,0.02876214,-0.05539375,-1.3275849,6.215348,7.726089
1740628112755047583,0.094808534,0.017044231,-0.04261058,-1.3371617,6.232107,7.6973586
1740628112758964333,0.11717909,0.014913702,-0.037284255,-1.3275849,6.242881,7.6255326
1740628112773810708,0.16298546,0.03089267,-0.017044231,-1.388637,6.3218894,7.2388687
1740628112782660583,0.16618125,0.056459017,0.0053263223,-1.377863,6.3601966,6.999449
1740628112795290208,0.12996227,0.08841695,0.027696876,-1.3443443,6.367379,6.6726403
1740628112804919792,0.08735169,0.10546118,0.040480047,-1.2880806,6.3601966,6.4990606
1740628112814836708,0.03195793,0.1257012,0.051132694,-1.2785037,6.38773,6.381745
1740628112825503208,-0.024501082,0.13528858,0.058589544,-1.270124,6.4044895,6.329072
1740628112835424750,-0.083090626,0.14594123,0.06391586,-1.2354081,6.409278,6.3781533
1740628112845278625,-0.13422333,0.16192019,0.070307456,-1.1623849,6.3901243,6.503849
1740628112851954875,-0.15765914,0.16724652,0.07137272,-1.1827357,6.3338604,6.364985
1740628112861318542,-0.23222765,0.15126756,0.07989483,-0.9888053,6.315904,6.467936
1740628112872449042,-0.27696875,0.13102753,0.06711166,-0.7625532,6.327875,6.8043213
1740628112883197625,-0.29827404,0.15765914,0.035153728,-0.6859388,6.3661823,6.9252286
1740628112891878041,-0.3089267,0.18748654,0.0,-0.7433996,6.3422403,7.0605006
1740628112903212792,-0.3089267,0.2066613,-0.025566347,-0.94810385,6.283582,7.240066
1740628112903055084,-0.3089267,0.2066613,-0.025566347,-0.94810385,6.283582,7.240066
1740628112920748209,-0.26738137,0.19281286,-0.02876214,-1.4329298,6.179435,7.299921
1740628112932603583,-0.25566345,0.18322548,-0.0063915867,-1.4975731,6.197391,7.3753386
1740628112942947000,-0.2428803,0.18535602,0.01917476,-1.435324,6.2105594,7.505822
1740628112955525416,-0.19387813,0.23542345,0.051132694,-1.2797008,6.1076083,8.018182
1740628112965939500,-0.13528858,0.28975195,0.070307456,-1.2294226,5.9926867,8.169016
1740628112975466625,-0.058589544,0.28442562,0.08841695,-1.2521675,5.9483943,8.099585
1740628112985276459,0.011717909,0.23329292,0.096939065,-1.3204023,6.030994,7.9116397
1740628112994487875,0.03834952,0.20879184,0.09267801,-1.3383588,6.0441623,7.908048
1740628113001718542,0.082025364,0.19068234,0.080960095,-1.3359646,6.1064115,7.8829093
1740628113015377333,0.15765914,0.13102753,0.060720075,-1.4425066,6.0357823,7.4926543
1740628113025905875,0.18642128,0.10013486,0.053263225,-1.4041992,6.042965,7.321469
1740628113035769250,0.18429075,0.111852765,0.04580637,-1.3180081,6.0716953,7.043741
1740628113041514791,0.1768339,0.12250541,0.040480047,-1.2497733,6.093243,6.9383965
1740628113055245291,0.15020229,0.14061491,0.02876214,-1.1899183,6.123171,6.743269
1740628113062504417,0.10759171,0.15339808,0.014913702,-1.2090719,6.14831,6.673837
1740628113074394333,0.026631612,0.16937704,-0.008522116,-1.3239936,6.2225304,6.6271505
1740628113085220583,-0.020240024,0.16192019,-0.022370555,-1.459266,6.265626,6.6044054
1740628113093536334,-0.04261058,0.15126756,-0.026631612,-1.4891934,6.278794,6.6546836
1740628113104823542,-0.096939065,0.13635385,-0.027696876,-1.508347,6.191406,6.867768
1740628113113310667,-0.10439592,0.13635385,-0.026631612,-1.5011644,6.184223,6.8893156
1740628113125261083,-0.113983296,0.10759171,-0.020240024,-1.5717934,6.1542954,6.8402343
1740628113134966125,-0.14168017,0.08628642,-0.017044231,-1.5729905,6.1926026,6.7863646
1740628113144952542,-0.18109496,0.07989483,-0.013848438,-1.5119383,6.2141504,7.0209966
1740628113154317250,-0.19281286,0.07456851,-0.0127831735,-1.5011644,6.235698,7.1861963
1740628113164743833,-0.1768339,0.060720075,-0.00958738,-1.5239093,6.114791,7.6147585
1740628113175602125,-0.14168017,0.056459017,-0.007456851,-1.5741876,6.075287,7.7189064
1740628113185741541,-0.099069595,0.024501082,-0.0031957934,-1.541866,6.0704985,7.6375036
1740628113195133416,-0.060720075,-0.03834952,-0.004261058,-1.4796166,6.0824695,7.5453267
1740628113201555208,-0.049002163,-0.06391586,-0.007456851,-1.412579,6.1207767,7.52737
1740628113213226667,-0.023435818,-0.09054748,-0.023435818,-1.3335704,6.099229,7.4471645
1740628113216450250,-0.015978966,-0.096939065,-0.03195793,-1.3060371,6.0968347,7.3992805
1740628113235401792,0.0,-0.098004326,-0.05006743,-1.4628572,6.0561333,7.2867527
1740628113245334125,0.0010652645,-0.099069595,-0.0479369,-1.5382746,6.0609217,7.33344
1740628113255748584,0.0010652645,-0.09374327,-0.041545313,-1.6484078,6.0561333,7.3286514
1740628113261198417,0.002130529,-0.08841695,-0.035153728,-1.6867151,6.05733,7.323863
1740628113273064709,0.0053263223,-0.07350325,-0.018109497,-1.6639702,6.054936,7.311892
1740628113281270666,0.007456851,-0.05965481,-0.004261058,-1.5514427,6.081272,7.3190746
1740628113291690666,0.010652645,-0.05539375,-0.0031957934,-1.4628572,6.0800753,7.1885905
1740628113301781792,0.002130529,-0.04580637,-0.00958738,-1.4101849,6.1076083,7.2221093
1740628113315347709,-0.00958738,-0.015978966,-0.015978966,-1.412579,6.087258,7.1981673
1740628113325494541,-0.00958738,0.00958738,-0.013848438,-1.4975731,6.1004257,7.237672
1740628113335717167,-0.011717909,0.03089267,-0.0031957934,-1.5502456,6.14831,7.1861963
1740628113341399833,-0.00958738,0.035153728,0.002130529,-1.5634137,6.1327477,7.207744
1740628113355313917,-0.014913702,0.046871636,0.018109497,-1.4915876,6.145916,7.132327
1740628113365572792,-0.02876214,0.05752428,0.023435818,-1.3299791,6.117185,7.2388687
1740628113371667500,-0.02876214,0.06498113,0.02130529,-1.2557588,6.0860605,7.2687964
1740628113383028250,-0.025566347,0.080960095,0.008522116,-1.2497733,6.0609217,7.2783732
1740628113394472375,-0.023435818,0.099069595,-0.002130529,-1.2665327,6.06571,7.1646485
1740628113401618875,-0.027696876,0.10972224,-0.00958738,-1.3515269,6.0597243,7.1730285
1740628113412862667,-0.03089267,0.11930962,-0.013848438,-1.4293385,6.0489507,7.1466923
1740628113423814166,-0.03834952,0.1257012,-0.018109497,-1.5131354,6.0525417,7.1670427
1740628113428623500,-0.043675844,0.12676647,-0.01917476,-1.5275006,6.06571,7.231686
1740628113445704958,-0.03834952,0.12144015,-0.024501082,-1.5478514,6.0381765,7.632715
1740628113455746291,-0.007456851,0.10972224,-0.026631612,-1.5849615,5.9890957,7.73806
1740628113465547917,0.03089267,0.10226539,-0.02130529,-1.62686,5.9783216,7.704541
1740628113475722916,0.068176925,0.10759171,-0.0127831735,-1.5693992,6.017826,7.687782
1740628113483165667,0.08735169,0.11824436,-0.0063915867,-1.5753847,6.0202203,7.6363063
1740628113495794792,0.14274544,0.17257284,0.017044231,-1.5466543,6.0525417,7.517793
1740628113500933291,0.1555286,0.1917476,0.022370555,-1.5011644,6.0609217,7.3897038
1740628113514161625,0.15978967,0.23222765,0.018109497,-1.4676456,6.0920463,7.1730285
1740628113525279958,0.13315806,0.26312032,-0.002130529,-1.5251064,6.1195793,7.1407065
1740628113534443250,0.12463594,0.2790993,-0.008522116,-1.567005,6.0501475,7.255628
1740628113544992541,0.13422333,0.28655612,-0.010652645,-1.5945383,6.0250087,7.261614
1740628113554471834,0.14594123,0.30040458,-0.00958738,-1.5705963,6.0585275,7.16824
1740628113565216625,0.13954964,0.32384038,-0.007456851,-1.6879122,6.1423244,6.96593
1740628113574518083,0.11930962,0.34834146,0.004261058,-1.8291701,6.197391,6.779182
1740628113585209250,0.09161274,0.37284255,0.020240024,-1.8770541,6.23091,6.7025676
1740628113594498916,0.0628506,0.39627838,0.036218993,-1.8674773,6.199785,6.600814
1740628113605975625,0.025566347,0.41758367,0.040480047,-1.8411411,6.209362,6.5218053
1740628113611985459,0.0,0.4314321,0.04580637,-1.9045875,6.1758432,6.4368114
1740628113622950250,-0.0628506,0.44208476,0.05539375,-1.7836803,6.159084,6.539762
1740628113635270375,-0.09161274,0.4165184,0.049002163,-1.9536686,6.1650696,6.7025676
1740628113645661334,-0.113983296,0.42717105,0.05006743,-2.0470424,6.2141504,6.7708025
1740628113655577125,-0.13422333,0.41438788,0.05539375,-2.0446482,6.217742,6.9000893
1740628113665015916,-0.13528858,0.3717773,0.05752428,-2.0961237,6.1507044,7.0808516
1740628113674902458,-0.128897,0.33449304,0.05006743,-2.0231004,6.1159883,7.0844426
1740628113681406000,-0.1257012,0.30999196,0.041545313,-1.9752164,6.125565,7.135918
1740628113691981750,-0.12037488,0.257794,0.017044231,-1.9800048,6.155493,7.147889
1740628113703764291,-0.12144015,0.2066613,-0.0127831735,-2.0374656,6.1387334,7.111976
1740628113707421833,-0.12250541,0.18002969,-0.022370555,-2.0649989,6.1447186,7.1131735
1740628113725778000,-0.11717909,0.09267801,-0.04474111,-2.1619642,6.1183825,7.0928226
1740628113735722459,-0.12463594,0.06924219,-0.04261058,-2.2218192,6.125565,7.0904284
1740628113744859125,-0.12996227,0.056459017,-0.037284255,-2.2062569,6.0920463,7.0952168
1740628113755674500,-0.12996227,0.05539375,-0.02876214,-2.219425,6.039374,7.1550717
1740628113765810334,-0.12676647,0.05965481,-0.025566347,-2.2266076,5.9962783,7.0724716
1740628113772459750,-0.12676647,0.058589544,-0.022370555,-2.268506,5.993884,7.0066314
1740628113781345125,-0.13102753,0.053263225,-0.01917476,-2.2744915,6.0046577,6.975507
1740628113785496958,-0.13528858,0.046871636,-0.017044231,-2.2661119,6.0369797,7.005434
1740628113803991375,-0.15978967,0.023435818,-0.015978966,-2.2397757,6.0082493,6.9826894
1740628113812354042,-0.17470337,0.004261058,-0.020240024,-2.3259668,6.0106435,7.0090256
1740628113820978458,-0.18535602,-0.011717909,-0.01917476,-2.4492683,6.019023,7.0449386
1740628113828211750,-0.19281286,-0.018109497,-0.014913702,-2.505532,6.0250087,7.064092
1740628113843332958,-0.2066613,-0.06924219,0.010652645,-2.6420016,6.069301,7.047333
1740628113855622125,-0.21198763,-0.16937704,0.04261058,-2.8179753,6.015432,7.1131735
1740628113865297125,-0.20453078,-0.26738137,0.07882957,-2.7521348,5.889736,7.192182
1740628113874805792,-0.20026971,-0.33768883,0.11824436,-2.385822,5.8562174,7.291541
1740628113882659125,-0.20026971,-0.350472,0.13102753,-2.1871033,5.8813562,7.382521
1740628113894924666,-0.18748654,-0.3291667,0.12996227,-1.7441759,5.932832,7.5932107
1740628113905886750,-0.165116,-0.28549087,0.10652645,-1.5981296,5.8143187,7.751228
1740628113915535667,-0.13528858,-0.21092236,0.084155895,-1.4496891,5.7041855,7.7907324
1740628113920797750,-0.11504856,-0.18642128,0.07456851,-1.4425066,5.710171,7.6363063
1740628113935445166,-0.07350325,-0.1917476,0.04261058,-1.4879963,5.7616463,7.442376
1740628113945940125,-0.07350325,-0.1949434,0.013848438,-1.4652514,5.805939,7.479486
1740628113955688125,-0.07456851,-0.1768339,-0.01917476,-1.460463,5.831078,7.511808
1740628113961243958,-0.06924219,-0.16831179,-0.036218993,-1.5011644,5.831078,7.4735007
1740628113971912542,-0.0628506,-0.16405073,-0.05965481,-1.6448165,5.8226986,7.4483614
1740628113982141166,-0.05752428,-0.16937704,-0.07137272,-1.8207904,5.8262897,7.3669586
1740628113986741500,-0.05752428,-0.16831179,-0.07243799,-1.9129672,5.8346696,7.374141
1740628114003218625,-0.05006743,-0.128897,-0.04580637,-2.0147207,5.840655,7.431602
1740628114015309791,-0.034088463,-0.08841695,0.0,-2.0135236,5.8358665,7.321469
1740628114025298625,-0.03834952,-0.084155895,0.014913702,-1.9692309,5.813122,7.358579
1740628114035257958,-0.04261058,-0.096939065,0.015978966,-1.9273324,5.7855883,7.3992805
1740628114045243417,-0.04580637,-0.12250541,0.0127831735,-1.9273324,5.8262897,7.3968863
1740628114055336542,-0.0479369,-0.13954964,0.014913702,-1.9021933,5.8346696,7.5189905
1740628114066448250,-0.03834952,-0.13209279,0.01917476,-1.816002,5.819107,7.6363063
1740628114074860083,-0.013848438,-0.10439592,0.026631612,-1.7405846,5.7520695,7.7488337
1740628114081326750,0.002130529,-0.09161274,0.03089267,-1.7381904,5.7185507,7.6865845
1740628114094928833,0.029827405,-0.10013486,0.036218993,-1.614889,5.719748,7.515399
1740628114102161709,0.03089267,-0.10652645,0.02876214,-1.5741876,5.720945,7.4962454
1740628114112233834,0.02876214,-0.098004326,0.010652645,-1.5598224,5.7508726,7.418434
1740628114123555458,0.027696876,-0.084155895,-0.0053263223,-1.5861586,5.7760115,7.3190746
1740628114133081084,0.015978966,-0.068176925,-0.0127831735,-1.6208745,5.781997,7.2472486
1740628114145804583,-0.0063915867,-0.05006743,-0.02130529,-1.6220716,5.801151,7.45315
1740628114155536416,-0.008522116,-0.037284255,-0.02876214,-1.6256629,5.7604494,7.5345526
1740628114165268834,-0.002130529,-0.027696876,-0.03834952,-1.6651673,5.7365074,7.620744
1740628114175488666,0.011717909,-0.020240024,-0.039414786,-1.6711528,5.6982,7.5920134
1740628114181566833,0.01917476,-0.017044231,-0.040480047,-1.6711528,5.710171,7.559692
1740628114192191750,0.027696876,-0.017044231,-0.037284255,-1.6663644,5.7808,7.4926543
1740628114201135709,0.029827405,-0.02130529,-0.036218993,-1.7010803,5.831078,7.4866686
1740628114213324875,0.03089267,-0.027696876,-0.041545313,-1.7884687,5.8502316,7.547721
1740628114222156209,0.043675844,-0.041545313,-0.041545313,-1.9141643,5.839458,7.5812397
1740628114232704583,0.06178534,-0.046871636,-0.027696876,-1.9620483,5.8107276,7.574057
1740628114244553667,0.08948222,-0.049002163,-0.0063915867,-1.7932571,5.815516,7.515399
1740628114254475375,0.099069595,-0.053263225,-0.0010652645,-1.7322049,5.827487,7.3753386
1740628114265251500,0.09267801,-0.05752428,-0.0053263223,-1.6579847,5.8023477,7.28795
1740628114274529791,0.07882957,-0.06178534,-0.0127831735,-1.6244658,5.7999535,7.3047094
1740628114285790375,0.068176925,-0.05539375,-0.02130529,-1.6160861,5.7963624,7.311892
1740628114295571375,0.06178534,-0.05006743,-0.027696876,-1.5981296,5.8107276,7.3466077
1740628114305108459,0.056459017,-0.0479369,-0.034088463,-1.5945383,5.8334723,7.3609734
1740628114315079000,0.053263225,-0.043675844,-0.04261058,-1.6436194,5.8634,7.4088573
1740628114321627167,0.053263225,-0.0479369,-0.046871636,-1.7034745,5.876568,7.4495587
1740628114335884042,0.05539375,-0.0479369,-0.04580637,-1.7848774,5.8693852,7.469909
1740628114341509833,0.056459017,-0.039414786,-0.041545313,-1.7788919,5.922058,7.4375877
1740628114354795292,0.066046394,-0.011717909,-0.022370555,-1.7776948,5.8813562,7.3669586
1740628114365105875,0.06924219,0.0053263223,-0.00958738,-1.7034745,5.889736,7.2484455
1740628114372266666,0.06498113,0.00958738,-0.0053263223,-1.7034745,5.901707,7.193379
1740628114381883333,0.05219796,0.010652645,-0.004261058,-1.6795325,5.9172697,7.1670427
1740628114395048541,0.03089267,0.010652645,-0.0127831735,-1.7669208,5.8741736,7.1873937
1740628114405942292,0.01917476,0.0063915867,-0.010652645,-1.8004397,5.8909335,7.1754227
1740628114415499833,0.007456851,-0.00958738,-0.0053263223,-1.7836803,5.925649,7.180211
1740628114422575792,0.004261058,-0.020240024,-0.002130529,-1.7513585,5.9160724,7.229292
1740628114432755875,-0.007456851,-0.03089267,-0.0053263223,-1.7369933,5.93762,7.2843585
1740628114441131375,-0.0127831735,-0.036218993,-0.010652645,-1.7633295,5.9280434,7.252037
1740628114455219875,-0.015978966,-0.05006743,-0.008522116,-1.6998832,5.9184666,7.40766
1740628114461286666,-0.010652645,-0.05752428,-0.0053263223,-1.6089035,5.8574142,7.4016747
1740628114472313083,-0.007456851,-0.05752428,-0.007456851,-1.5777789,5.8442464,7.3897038
1740628114485042833,0.002130529,-0.053263225,-0.0127831735,-1.5454572,5.831078,7.467515
1740628114495359792,0.0031957934,-0.053263225,-0.023435818,-1.4915876,5.8143187,7.430405
1740628114495234625,0.0031957934,-0.053263225,-0.023435818,-1.4915876,5.8143187,7.430405
1740628114495004542,0.0031957934,-0.053263225,-0.023435818,-1.4915876,5.8143187,7.430405
1740628114495395917,0.0031957934,-0.053263225,-0.023435818,-1.4915876,5.8143187,7.430405
1740628114495527458,0.0031957934,-0.053263225,-0.023435818,-1.4915876,5.8143187,7.430405
1740628114495385417,0.0031957934,-0.053263225,-0.023435818,-1.4915876,5.8143187,7.430405
1740628114495537708,0.0031957934,-0.053263225,-0.023435818,-1.4915876,5.8143187,7.430405
1740628114564357208,0.020240024,-0.026631612,-0.060720075,-1.816002,5.935226,7.380127
1740628114574407167,0.02130529,-0.037284255,-0.05539375,-1.8327614,5.9759274,7.4723034
1740628114584115375,0.02876214,-0.04580637,-0.049002163,-1.9153614,5.946,7.398083
1740628114594216166,0.039414786,-0.05219796,-0.036218993,-1.9620483,5.9304376,7.2089415
1740628114605157083,0.033023197,-0.05539375,-0.014913702,-1.9740193,5.9400144,7.192182
1740628114614520292,0.014913702,-0.07137272,0.011717909,-1.8866309,5.949591,7.1431007
1740628114624476375,-0.004261058,-0.07137272,0.02130529,-1.7944542,5.9364233,7.1083846
1740628114635173333,-0.022370555,-0.06498113,0.026631612,-1.7166426,5.919664,7.117962
1740628114645000083,-0.041545313,-0.054328486,0.029827405,-1.602918,5.9448028,7.1873937
1740628114654619500,-0.053263225,-0.03834952,0.027696876,-1.4652514,5.9292407,7.2687964
1740628114664384792,-0.0628506,-0.02130529,0.018109497,-1.4520833,5.9280434,7.33344
1740628114674466708,-0.06711166,-0.013848438,0.0053263223,-1.448492,5.8837504,7.4088573
1740628114684450667,-0.06391586,-0.014913702,-0.0031957934,-1.472434,5.85502,7.5692687
1740628114694394334,-0.0479369,-0.014913702,-0.013848438,-1.5215151,5.801151,7.5848308
1740628114704533459,-0.03089267,-0.02130529,-0.025566347,-1.6065093,5.81791,7.583634
1740628114704242417,-0.03089267,-0.02130529,-0.025566347,-1.6065093,5.81791,7.583634
1740628114721737959,-0.008522116,-0.024501082,-0.025566347,-1.6352397,5.8203044,7.529764
1740628114734528167,0.007456851,-0.024501082,-0.02130529,-1.7369933,5.8442464,7.4974427
1740628114745176541,0.008522116,-0.023435818,-0.015978966,-1.7429788,5.8454432,7.4268136
1740628114754328958,0.00958738,-0.01917476,-0.00958738,-1.7034745,5.8382607,7.4603324
1740628114765281000,0.00958738,-0.00958738,-0.0053263223,-1.6795325,5.851429,7.489063
1740628114775240750,0.017044231,0.0031957934,-0.0053263223,-1.6819267,5.815516,7.49026
1740628114785415792,0.024501082,-0.0010652645,-0.007456851,-1.6759412,5.765238,7.4387846
1740628114794294875,0.02876214,-0.0063915867,-0.00958738,-1.6711528,5.805939,7.359776
1740628114806008833,0.023435818,-0.0053263223,-0.008522116,-1.6687586,5.852626,7.3669586
1740628114815004625,0.022370555,0.002130529,-0.0053263223,-1.6843209,5.899313,7.3777328
1740628114825742250,0.024501082,0.0127831735,0.0,-1.6867151,5.8885393,7.3286514
1740628114831498875,0.023435818,0.015978966,0.002130529,-1.6819267,5.886145,7.2699933
1740628114840457917,0.015978966,0.01917476,0.007456851,-1.697489,5.898116,7.2747817
1740628114854455083,-0.0010652645,0.0031957934,0.010652645,-1.7585411,5.931635,7.290344
1740628114864489417,-0.010652645,-0.0010652645,0.013848438,-1.7549498,5.898116,7.3609734
1740628114875218125,-0.010652645,0.0,0.02130529,-1.7357962,5.898116,7.419631
1740628114885600125,-0.0063915867,0.004261058,0.026631612,-1.6591818,5.872977,7.381324
1740628114894585083,-0.004261058,0.010652645,0.027696876,-1.5825673,5.852626,7.3549876
1740628114905025000,-0.0053263223,0.00958738,0.02130529,-1.5358804,5.852626,7.382521
1740628114915139333,-0.004261058,0.00958738,0.018109497,-1.5514427,5.8622026,7.430405
1740628114923243833,-0.002130529,0.008522116,0.0127831735,-1.5801731,5.8681884,7.4854717
1740628114935733500,0.010652645,0.026631612,0.018109497,-1.567005,5.837064,7.405266
1740628114945809500,0.0127831735,0.029827405,0.015978966,-1.5298948,5.861006,7.3789296
1740628114952314666,0.011717909,0.01917476,0.0053263223,-1.5921441,5.8598084,7.393295
1740628114965678791,0.0031957934,0.0127831735,-0.0063915867,-1.6675615,5.9064956,7.381324
1740628114976742084,0.002130529,0.011717909,-0.007456851,-1.721431,5.90889,7.4112515
1740628114980073583,0.004261058,0.011717909,-0.004261058,-1.7513585,5.9148755,7.3777328
1740628114995606375,0.004261058,0.015978966,0.0063915867,-1.7166426,5.8909335,7.277176
1740628115002219084,0.002130529,0.01917476,0.00958738,-1.6663644,5.8921304,7.267599
1740628115014462250,-0.015978966,0.013848438,0.010652645,-1.6663644,5.923255,7.20535
1740628115025390708,-0.033023197,-0.0010652645,0.0053263223,-1.6424223,5.8813562,7.2029557
1740628115025373792,-0.033023197,-0.0010652645,0.0053263223,-1.6424223,5.8813562,7.2029557
1740628115045288584,-0.041545313,-0.015978966,0.0,-1.6962919,5.872977,7.337031
1740628115055190625,-0.043675844,-0.018109497,0.004261058,-1.6807296,5.886145,7.249643
1740628115065110667,-0.049002163,-0.01917476,0.008522116,-1.6807296,5.9005103,7.275979
1740628115075359333,-0.05539375,-0.011717909,0.0063915867,-1.6831238,5.8813562,7.290344
1740628115084035667,-0.066046394,-0.008522116,0.0053263223,-1.6915035,5.8945246,7.345411
1740628115094582167,-0.070307456,-0.011717909,0.0063915867,-1.6783354,5.8107276,7.5106106
1740628115104740333,-0.06391586,-0.010652645,0.007456851,-1.6519991,5.792771,7.565677
1740628115111038875,-0.05965481,-0.0127831735,0.008522116,-1.6627731,5.7628436,7.5333557
1740628115125864250,-0.04474111,-0.00958738,0.008522116,-1.614889,5.793968,7.517793
1740628115135580042,-0.036218993,0.0053263223,0.0053263223,-1.5346833,5.805939,7.491457
1740628115141112542,-0.035153728,0.0127831735,0.002130529,-1.5334862,5.7736173,7.4687123
1740628115153717792,-0.03089267,0.017044231,-0.0031957934,-1.578976,5.78918,7.4256167
1740628115161616083,-0.02876214,0.004261058,-0.0063915867,-1.6687586,5.7903767,7.4723034
1740628115175031625,-0.015978966,-0.015978966,-0.002130529,-1.733402,5.825093,7.6231384
1740628115185587417,0.0053263223,-0.018109497,0.007456851,-1.6400281,5.7963624,7.6889787
1740628115195752167,0.029827405,-0.017044231,0.010652645,-1.5382746,5.779603,7.678205
1740628115205826375,0.05219796,-0.011717909,0.0031957934,-1.5334862,5.78918,7.656657
1740628115211675625,0.060720075,-0.010652645,-0.002130529,-1.5251064,5.7975593,7.5800424
1740628115225247167,0.07456851,-0.02130529,-0.015978966,-1.5717934,5.795165,7.4950485
1740628115234347708,0.080960095,-0.02876214,-0.023435818,-1.6376339,5.8215013,7.457938
1740628115244582875,0.082025364,-0.029827405,-0.022370555,-1.661576,5.851429,7.3777328
1740628115254699666,0.07989483,-0.03089267,-0.02130529,-1.6292542,5.8801594,7.3310456
1740628115264729959,0.07243799,-0.037284255,-0.018109497,-1.6160861,5.9005103,7.285556
1740628115274631834,0.06391586,-0.04474111,-0.022370555,-1.6292542,5.8825536,7.27957
1740628115284624458,0.05752428,-0.05752428,-0.03089267,-1.614889,5.887342,7.3418193
1740628115293247375,0.05539375,-0.06178534,-0.035153728,-1.62686,5.886145,7.351396
1740628115305575708,0.05006743,-0.0628506,-0.03834952,-1.6771383,5.887342,7.40766
1740628115314988583,0.054328486,-0.0628506,-0.029827405,-1.685518,5.889736,7.422025
1740628115325080625,0.05965481,-0.05752428,-0.023435818,-1.6675615,5.886145,7.41604
1740628115335391042,0.05965481,-0.05006743,-0.017044231,-1.6699557,5.9052987,7.285556
1740628115345700208,0.05219796,-0.04474111,-0.0127831735,-1.6292542,5.919664,7.228095
1740628115355278958,0.037284255,-0.039414786,-0.011717909,-1.5765818,5.931635,7.1909847
1740628115365003375,0.022370555,-0.022370555,-0.015978966,-1.5981296,5.934029,7.180211
1740628115370999292,0.014913702,-0.0127831735,-0.015978966,-1.6136919,5.923255,7.1670427
1740628115385346084,-0.0010652645,0.017044231,-0.0031957934,-1.6567876,5.934029,7.2460513
1740628115394584500,-0.00958738,0.022370555,0.0031957934,-1.7058687,5.931635,7.2221093
1740628115404600708,-0.017044231,0.014913702,0.007456851,-1.7022774,5.896919,7.243657
1740628115414428750,-0.025566347,0.00958738,0.0063915867,-1.6484078,5.8945246,7.285556
1740628115424513084,-0.035153728,0.0053263223,0.004261058,-1.6077064,5.8801594,7.2987237
1740628115434497667,-0.040480047,0.010652645,0.0031957934,-1.6184803,5.8921304,7.36217
1740628115444521959,-0.041545313,0.0063915867,0.0063915867,-1.673547,5.8586116,7.3765354
1740628115455658750,-0.040480047,-0.007456851,0.010652645,-1.6938977,5.866991,7.5082164
1740628115465431834,-0.03195793,-0.014913702,0.014913702,-1.6412252,5.843049,7.6135616
1740628115475585542,-0.008522116,-0.014913702,0.014913702,-1.6184803,5.8562174,7.642292
1740628115484638625,0.011717909,-0.010652645,0.018109497,-1.5682021,5.8681884,7.621941
1740628115494754250,0.03089267,-0.0063915867,0.018109497,-1.5011644,5.837064,7.5046253
1740628115504773250,0.040480047,-0.0010652645,0.015978966,-1.4173675,5.852626,7.441179
1740628115512708292,0.04261058,0.0010652645,0.010652645,-1.3754689,5.843049,7.410054
1740628115525124833,0.040480047,0.014913702,-0.014913702,-1.3946224,5.8454432,7.3669586
1740628115535342708,0.037284255,0.00958738,-0.029827405,-1.555034,5.8622026,7.33344
1740628115545653209,0.033023197,0.002130529,-0.035153728,-1.6484078,5.875371,7.291541
1740628115551463375,0.03089267,-0.0010652645,-0.034088463,-1.70946,5.8801594,7.3310456
1740628115560830584,0.03089267,-0.0031957934,-0.02876214,-1.7764976,5.93762,7.36217
1740628115574366166,0.029827405,-0.002130529,-0.008522116,-1.8124107,5.9783216,7.299921
1740628115584609666,0.02876214,-0.0053263223,0.0010652645,-1.7262194,5.9483943,7.2711906
1740628115595333792,0.018109497,-0.002130529,0.010652645,-1.6364368,5.9483943,7.181408
1740628115605344834,0.004261058,-0.008522116,0.00958738,-1.5957354,5.9543796,7.193379
1740628115614560125,-0.010652645,-0.020240024,0.0010652645,-1.5598224,5.959168,7.3729444
1740628115619840333,-0.0127831735,-0.026631612,-0.0063915867,-1.5969325,5.895722,7.4112515
1740628115633328375,-0.0063915867,-0.037284255,-0.0127831735,-1.6376339,5.8334723,7.443573
1740628115645824167,0.008522116,-0.036218993,-0.0031957934,-1.5598224,5.840655,7.431602
1740628115654240417,0.013848438,-0.035153728,-0.0063915867,-1.5610195,5.911284,7.229292
1740628115664638458,-0.0031957934,-0.02876214,-0.011717909,-1.5239093,5.9843073,7.273585
1740628115674549709,-0.013848438,-0.017044231,-0.01917476,-1.4891934,5.9388175,7.443573
1740628115684314667,0.01917476,-0.029827405,-0.020240024,-1.7118542,5.795165,7.5213847
1740628115694066750,0.04261058,0.00958738,0.008522116,-1.7046716,5.865794,7.606379
1740628115704102083,0.054328486,0.03834952,0.015978966,-1.5897499,5.979519,7.4926543
1740628115713935959,0.06178534,0.017044231,0.008522116,-1.6831238,5.9448028,7.4004774
1740628115723960250,0.04580637,0.0127831735,0.008522116,-1.6424223,5.896919,7.3166804
1740628115733954792,0.03089267,-0.004261058,0.0010652645,-1.590947,5.884948,7.2233067
1740628115743947667,0.00958738,-0.023435818,-0.015978966,-1.508347,5.9148755,7.133524
1740628115753987250,-0.010652645,-0.027696876,-0.034088463,-1.5071499,5.99149,7.1263413
1740628115764004666,-0.0127831735,-0.010652645,-0.03089267,-1.6292542,5.947197,7.243657
1740628115774130166,-0.013848438,0.008522116,-0.01917476,-1.6292542,5.9280434,7.1826053
