#timestamp [ns],w_RS_S_x [rad s^-1],w_RS_S_y [rad s^-1],w_RS_S_z [rad s^-1],a_RS_S_x [m s^-2],a_RS_S_y [m s^-2],a_RS_S_z [m s^-2]
1739387922470,-0.0010652645,0.0010652645,0.0,-0.095768064,9.570822,0.34117374
1739387922475,-0.0010652645,0.002130529,0.0,-0.11971009,9.601946,0.35553896
1739387922480,0.0010652645,0.002130529,0.0,-0.11731588,9.639056,0.34835634
1739387922485,0.0010652645,0.0010652645,0.0,-0.11252748,9.589975,0.33399114
1739387922490,0.0010652645,0.0,-0.0010652645,-0.11492168,9.589975,0.33877954
1739387922494,0.0,0.0,-0.0010652645,-0.11492168,9.566033,0.34356794
1739387922499,0.0010652645,0.0,0.0,-0.12449849,9.592369,0.34835634
1739387922505,0.0,0.0,0.0010652645,-0.107739076,9.543288,0.35434186
1739387922510,0.0,0.0,-0.0010652645,-0.12210429,9.551667,0.33997664
1739387922515,-0.0010652645,0.0010652645,0.0010652645,-0.11731588,9.568427,0.33638534
1739387922520,0.0010652645,0.0010652645,0.0010652645,-0.108936176,9.589975,0.34237084
1739387922525,0.0,0.0010652645,0.0010652645,-0.11252748,9.579201,0.35194764
1739387922530,0.0,0.0,-0.002130529,-0.12210429,9.572019,0.36152446
1739387922535,0.0010652645,0.0010652645,0.0010652645,-0.11611878,9.618706,0.34715924
1739387922540,0.0,0.0010652645,0.0,-0.10534488,9.598354,0.36631286
1739387922545,0.0,0.0010652645,-0.0010652645,-0.11252748,9.607931,0.35194764
1739387922550,0.0010652645,0.002130529,0.0,-0.108936176,9.593566,0.35793316
1739387922555,0.0010652645,0.002130529,0.0,-0.11372458,9.576807,0.33399114
1739387929833,0.0010652645,0.0,-0.0010652645,-0.12330139,9.592369,0.33279404
1739387929838,0.0010652645,0.0010652645,-0.0010652645,-0.10534488,9.616311,0.33518824
1739387929841,0.0010652645,0.0010652645,-0.0010652645,-0.10534488,9.616311,0.33518824
1739387929848,0.0010652645,0.0010652645,-0.0010652645,-0.10295067,9.581595,0.34237084
1739387929853,0.0010652645,0.0,-0.0010652645,-0.10534488,9.604341,0.33997664
1739387929858,0.0010652645,0.0010652645,-0.002130529,-0.108936176,9.619903,0.32441434
1739387929859,0.0010652645,0.0010652645,-0.002130529,-0.108936176,9.619903,0.32441434
1739387929863,0.0010652645,0.002130529,-0.0010652645,-0.107739076,9.609129,0.33758244
1739387929868,0.0010652645,0.0,-0.0010652645,-0.10055647,9.613917,0.34955344
1739387929873,0.0010652645,0.0010652645,-0.002130529,-0.09816227,9.618706,0.33758244
1739387929879,0.002130529,0.0010652645,-0.002130529,-0.10055647,9.605537,0.34955344
1739387929883,0.0010652645,0.0031957934,-0.0010652645,-0.107739076,9.588778,0.34237084
1739387929888,0.002130529,0.002130529,-0.0010652645,-0.10055647,9.609129,0.35553896
1739387929893,0.0010652645,0.0010652645,0.0010652645,-0.09935937,9.589975,0.35194764
1739387929899,0.0010652645,0.002130529,-0.0010652645,-0.094570965,9.582792,0.34715924
1739387929902,0.0010652645,0.002130529,0.0,-0.095768064,9.605537,0.35673606
1739387929908,0.002130529,0.0010652645,-0.0010652645,-0.095768064,9.618706,0.33758244
1739387929913,0.002130529,0.0,-0.0010652645,-0.12569559,9.593566,0.34476504
1739387929918,0.002130529,-0.0010652645,0.0,-0.10295067,9.574412,0.36152446
1739387929923,0.0010652645,0.0,-0.0010652645,-0.11731588,9.636662,0.34476504
1739387929928,0.0010652645,0.002130529,-0.0010652645,-0.10654198,9.617508,0.35673606
1739387929934,0.0010652645,0.002130529,-0.002130529,-0.10534488,9.61272,0.34356794
1739387929939,0.0,0.0010652645,-0.0010652645,-0.107739076,9.598354,0.35075054
1739387929943,0.0010652645,0.0010652645,-0.0010652645,-0.10534488,9.603143,0.34596214
1739387929948,0.0010652645,0.0,-0.0010652645,-0.10534488,9.599552,0.33518824
1739387929953,0.0,0.0,0.0,-0.11372458,9.613917,0.34356794
1739387929958,0.0,0.0010652645,-0.0010652645,-0.11492168,9.606734,0.36032736
1739387929963,0.0010652645,0.0010652645,-0.0010652645,-0.12090719,9.616311,0.35434186
1739387929968,0.0,0.002130529,-0.0010652645,-0.11372458,9.624691,0.33279404
1739387929973,0.0,0.0010652645,0.0,-0.10175357,9.621099,0.34117374
1739387929979,0.002130529,0.0010652645,-0.0010652645,-0.108936176,9.627085,0.36511576
1739387929982,0.002130529,0.0010652645,-0.0010652645,-0.08619126,9.617508,0.33638534
1739387929988,0.0,0.0,-0.0010652645,-0.11851298,9.610326,0.33758244
1739387929993,-0.0010652645,0.0,-0.0010652645,-0.108936176,9.604341,0.35194764
1739387929999,0.0,0.0010652645,0.0,-0.10295067,9.599552,0.35673606
1739387930003,0.0010652645,0.0010652645,0.0,-0.11611878,9.615114,0.35553896
1739387930008,0.0010652645,0.0010652645,0.0,-0.12330139,9.591172,0.33877954
1739387930012,0.0010652645,0.0,-0.0010652645,-0.11372458,9.587581,0.35793316
1739387930017,0.0010652645,0.0,-0.0010652645,-0.11252748,9.603143,0.33518824
1739387930020,0.0010652645,0.0,-0.0010652645,-0.11252748,9.603143,0.33518824
1739387930023,0.002130529,0.0010652645,-0.002130529,-0.09696517,9.616311,0.33877954
1739387930028,0.0,0.0010652645,-0.002130529,-0.089782566,9.621099,0.36032736
1739387930033,0.002130529,0.002130529,-0.002130529,-0.095768064,9.579201,0.34835634
1739387930038,0.0010652645,0.0010652645,0.0,-0.09935937,9.625888,0.34117374
1739387930043,0.0010652645,0.0,0.0,-0.095768064,9.594764,0.35075054
1739387930048,0.0010652645,0.0,0.0010652645,-0.10295067,9.610326,0.35553896
1739387930053,0.0010652645,0.0,0.0,-0.11252748,9.593566,0.34715924
1739387930058,0.0010652645,0.0010652645,0.0010652645,-0.12689269,9.628283,0.35553896
1739387930063,0.0,0.0010652645,-0.0010652645,-0.11611878,9.61272,0.36391866
1739387930068,0.0010652645,0.002130529,-0.0010652645,-0.12090719,9.613917,0.34715924
1739387930073,0.0010652645,0.002130529,-0.0010652645,-0.12090719,9.613917,0.34715924
1739387930078,0.0010652645,0.0,-0.002130529,-0.088585466,9.5971575,0.34715924
1739387930083,0.002130529,0.0,-0.0010652645,-0.09935937,9.586384,0.34356794
1739387930088,0.0010652645,0.0,0.0,-0.10534488,9.570822,0.34596214
1739387930093,0.002130529,0.0010652645,-0.0010652645,-0.11133038,9.605537,0.32441434
1739387930099,0.0,0.0010652645,0.0,-0.09696517,9.639056,0.34476504
1739387930103,0.002130529,0.0010652645,-0.002130529,-0.09816227,9.616311,0.33877954
1739387930108,0.0,0.0010652645,-0.002130529,-0.12569559,9.619903,0.31603462
1739387930114,0.0010652645,0.0,-0.004261058,-0.12928689,9.628283,0.34476504
1739387930119,0.0010652645,0.0010652645,-0.0031957934,-0.12449849,9.625888,0.34476504
1739387930122,0.002130529,0.0010652645,-0.002130529,-0.09935937,9.604341,0.35434186
1739387930129,0.002130529,0.0010652645,-0.0010652645,-0.108936176,9.5971575,0.35913026
1739387930134,0.0031957934,0.0,0.0010652645,-0.130484,9.607931,0.34835634
1739387930136,0.0031957934,0.0,0.0010652645,-0.130484,9.607931,0.34835634
1739387930142,0.0010652645,0.0010652645,-0.0010652645,-0.10055647,9.604341,0.33997664
1739387930148,0.0010652645,0.0010652645,0.0,-0.11133038,9.601946,0.36870706
1739387930152,0.0010652645,0.0010652645,-0.0010652645,-0.10534488,9.5971575,0.35075054
1739387930158,0.0010652645,0.0,-0.002130529,-0.11611878,9.616311,0.35793316
1739387930162,0.0010652645,0.0,-0.0010652645,-0.110133275,9.635465,0.35553896
1739387930168,0.002130529,0.0,0.0,-0.12090719,9.615114,0.35673606
1739387930173,0.0,0.0010652645,0.0,-0.10175357,9.625888,0.34835634
1739387930179,0.0,0.0010652645,0.0,-0.10414778,9.582792,0.36032736
1739387930183,0.0,0.0,-0.0010652645,-0.11971009,9.589975,0.34596214
1739387930189,0.002130529,0.0010652645,-0.0010652645,-0.107739076,9.607931,0.34356794
1739387930192,0.0010652645,0.0,0.0010652645,-0.108936176,9.610326,0.34237084
1739387930198,0.0010652645,-0.0010652645,0.0,-0.11133038,9.598354,0.33877954
1739387930202,0.0,0.0010652645,-0.0010652645,-0.11971009,9.615114,0.36152446
1739387930208,0.0010652645,0.0010652645,-0.0010652645,-0.11492168,9.616311,0.33877954
1739387930212,0.0010652645,0.0,-0.0010652645,-0.09696517,9.606734,0.34356794
1739387930218,0.0,0.0010652645,0.0,-0.10175357,9.582792,0.34117374
1739387930222,0.0,0.0010652645,-0.002130529,-0.088585466,9.595961,0.33877954
1739387930228,0.0010652645,0.0010652645,-0.0010652645,-0.090979666,9.586384,0.33399114
1739387930234,0.0010652645,0.0,0.0,-0.11851298,9.5971575,0.33638534
1739387930239,0.002130529,0.0,-0.0010652645,-0.108936176,9.604341,0.34715924
1739387930242,0.0031957934,0.0010652645,-0.002130529,-0.10295067,9.634268,0.34476504
1739387930248,0.0031957934,0.0010652645,-0.002130529,-0.12928689,9.5971575,0.33997664
1739387930253,0.002130529,0.0010652645,-0.002130529,-0.130484,9.598354,0.32800564
1739387930259,0.002130529,0.0,-0.0010652645,-0.09816227,9.583989,0.35793316
1739387930262,0.0010652645,0.0010652645,-0.0010652645,-0.09935937,9.630676,0.33518824
1739387930268,0.002130529,0.0010652645,-0.0010652645,-0.090979666,9.61272,0.34835634
1739387930273,0.0010652645,0.0010652645,-0.0010652645,-0.10654198,9.564836,0.32680854
1739387930278,0.0,0.002130529,-0.0010652645,-0.11372458,9.591172,0.33758244
1739387930283,0.0,0.0010652645,-0.0010652645,-0.11252748,9.609129,0.33159694
1739387930288,0.002130529,0.0010652645,0.0,-0.107739076,9.607931,0.33518824
1739387930294,0.002130529,0.0,-0.0010652645,-0.092176765,9.625888,0.35314476
1739387930298,0.002130529,-0.0010652645,-0.0010652645,-0.092176765,9.61272,0.33997664
1739387930303,0.002130529,0.0,-0.0010652645,-0.10295067,9.606734,0.34835634
1739387930308,0.0010652645,0.0,-0.002130529,-0.10654198,9.589975,0.35673606
1739387930313,0.0,0.0,-0.0010652645,-0.11492168,9.619903,0.34476504
1739387930319,-0.0010652645,0.0010652645,-0.002130529,-0.11611878,9.598354,0.36032736
1739387930323,0.0,0.0010652645,-0.0010652645,-0.11133038,9.61272,0.33997664
1739387930328,-0.0010652645,0.0010652645,0.0,-0.110133275,9.5971575,0.35075054
1739387930333,0.0,0.0010652645,-0.002130529,-0.09696517,9.591172,0.34237084
1739387930338,0.002130529,0.0010652645,-0.0010652645,-0.10055647,9.586384,0.35793316
1739387930343,0.0010652645,0.0010652645,-0.0010652645,-0.10414778,9.609129,0.34356794
1739387930347,0.0,0.0010652645,0.0010652645,-0.107739076,9.621099,0.34356794
1739387930353,0.0010652645,0.0010652645,0.0,-0.09935937,9.5971575,0.33758244
1739387930359,0.002130529,0.002130529,-0.002130529,-0.10295067,9.604341,0.34955344
1739387930363,0.0010652645,0.0010652645,-0.0010652645,-0.10295067,9.607931,0.34237084
1739387930368,0.0,0.0010652645,0.0,-0.08499416,9.589975,0.32321724
1739387930373,0.0,0.0,0.0,-0.10175357,9.568427,0.33638534
1739387930378,0.0010652645,0.0,0.0,-0.12210429,9.611523,0.33997664
1739387930382,0.0010652645,0.0,-0.0010652645,-0.12449849,9.595961,0.35434186
1739387930388,0.0010652645,0.0010652645,-0.0010652645,-0.11252748,9.593566,0.34955344
1739387930393,0.0,0.0,0.0,-0.10295067,9.606734,0.35194764
1739387930398,0.0,0.0,0.002130529,-0.09816227,9.591172,0.33758244
1739387930403,0.0010652645,0.0,0.0,-0.108936176,9.600749,0.34476504
1739387930408,0.0,0.0,-0.0010652645,-0.108936176,9.630676,0.35075054
1739387930412,-0.0010652645,0.0010652645,-0.0010652645,-0.11611878,9.599552,0.34356794
1739387930415,-0.0010652645,0.0010652645,-0.0010652645,-0.11611878,9.599552,0.34356794
1739387930420,0.0,0.0010652645,0.0,-0.107739076,9.630676,0.35913026
1739387930423,0.0,0.0,-0.0010652645,-0.10414778,9.581595,0.36032736
1739387930428,0.0,0.0010652645,-0.002130529,-0.130484,9.598354,0.36750996
1739387930433,0.0010652645,0.0,-0.002130529,-0.12808979,9.599552,0.35913026
1739387930438,0.0,0.0010652645,-0.002130529,-0.12210429,9.621099,0.34237084
1739387930443,0.0010652645,0.0010652645,-0.002130529,-0.11492168,9.611523,0.33877954
1739387930448,0.0010652645,0.0010652645,-0.0010652645,-0.094570965,9.600749,0.35673606
1739387930453,0.0,0.002130529,-0.002130529,-0.10295067,9.611523,0.35194764
1739387930458,0.0,0.002130529,-0.0031957934,-0.094570965,9.582792,0.36032736
1739387930463,0.0,0.0010652645,-0.0031957934,-0.095768064,9.591172,0.34596214
1739387930469,0.0,0.0010652645,-0.0010652645,-0.09816227,9.601946,0.34835634
1739387930474,0.0010652645,0.0010652645,0.0,-0.11851298,9.588778,0.33518824
1739387930479,0.0,0.0,-0.0010652645,-0.107739076,9.647436,0.35194764
1739387930483,0.0010652645,0.002130529,-0.0010652645,-0.12210429,9.624691,0.35194764
1739387930488,0.002130529,0.0010652645,-0.002130529,-0.1352724,9.611523,0.34955344
1739387930493,0.0010652645,0.0010652645,0.0,-0.1376666,9.610326,0.34715924
1739387930498,0.0,0.0010652645,0.0,-0.12090719,9.534908,0.35314476
1739387930503,-0.008522116,0.0,-0.004261058,-0.107739076,9.522937,0.35673606
1739387930508,-0.018109497,0.0,-0.008522116,-0.11372458,9.654618,0.33877954
1739387930513,-0.011717909,0.0010652645,-0.0063915867,-0.10055647,9.665392,0.32441434
1739387930518,-0.0031957934,0.0010652645,-0.0031957934,-0.12330139,9.616311,0.33877954
1739387930523,-0.002130529,0.0,-0.002130529,-0.11252748,9.613917,0.34835634
1739387930528,0.0,0.0010652645,-0.0010652645,-0.10175357,9.645041,0.33758244
1739387930533,0.0053263223,0.0,0.002130529,-0.092176765,9.637859,0.32920274
1739387930538,0.007456851,0.0,0.0031957934,-0.10414778,9.581595,0.34117374
1739387930543,0.007456851,0.0010652645,0.0031957934,-0.11611878,9.598354,0.35075054
1739387930548,0.007456851,0.002130529,0.0031957934,-0.10295067,9.61272,0.34835634
1739387930552,0.008522116,0.0010652645,0.002130529,-0.11133038,9.560047,0.35434186
1739387930557,0.0063915867,0.0010652645,0.0010652645,-0.1388637,9.578004,0.36391866
1739387930563,0.004261058,0.0,0.0010652645,-0.11372458,9.604341,0.35673606
1739387930568,0.0031957934,0.0,0.0,-0.10654198,9.587581,0.35793316
1739387930573,0.0,0.0,-0.0010652645,-0.108936176,9.594764,0.33279404
1739387930577,-0.0010652645,0.0,-0.002130529,-0.095768064,9.617508,0.34715924
1739387930582,0.002130529,0.0,0.0,-0.09816227,9.594764,0.35913026
1739387930587,0.0,0.0010652645,-0.0010652645,-0.10295067,9.615114,0.34237084
1739387930593,-0.002130529,0.0010652645,-0.002130529,-0.093373865,9.628283,0.33039984
1739387930598,0.0010652645,0.002130529,0.0,-0.107739076,9.603143,0.33638534
1739387930602,0.0010652645,0.0010652645,-0.0010652645,-0.11611878,9.592369,0.34955344
1739387930607,0.0,0.0,-0.0010652645,-0.10534488,9.636662,0.32800564
1739387930612,0.0010652645,0.0010652645,0.0,-0.11252748,9.617508,0.35793316
1739387930618,0.002130529,0.0010652645,-0.0010652645,-0.12210429,9.634268,0.34476504
1739387930622,0.0,0.0010652645,-0.0010652645,-0.094570965,9.610326,0.34476504
1739387930627,0.0,0.0010652645,-0.0010652645,-0.08499416,9.616311,0.34596214
1739387930632,0.002130529,0.0,-0.002130529,-0.107739076,9.582792,0.34476504
1739387930639,0.0,0.0,0.0,-0.10055647,9.589975,0.34237084
1739387930644,0.0,0.002130529,-0.002130529,-0.094570965,9.609129,0.34356794
1739387930648,0.0,0.0010652645,0.0,-0.11971009,9.607931,0.33279404
1739387930654,0.0,0.0010652645,0.0,-0.10295067,9.599552,0.34596214
1739387930659,-0.0010652645,0.0010652645,-0.0010652645,-0.10295067,9.603143,0.34596214
1739387930661,-0.0010652645,0.0010652645,-0.0010652645,-0.10295067,9.603143,0.34596214
1739387930668,0.0,0.0010652645,-0.0010652645,-0.09816227,9.593566,0.33399114
1739387930673,0.0,0.0010652645,-0.0010652645,-0.107739076,9.57561,0.34117374
1739387930678,0.0010652645,0.0010652645,-0.002130529,-0.107739076,9.625888,0.35673606
1739387930682,0.002130529,0.0010652645,-0.002130529,-0.089782566,9.618706,0.34356794
1739387930688,0.0010652645,0.0010652645,-0.0010652645,-0.09696517,9.594764,0.34117374
1739387930692,0.0010652645,0.0,-0.002130529,-0.10414778,9.651027,0.34356794
1739387930698,0.002130529,-0.0010652645,-0.0010652645,-0.12090719,9.607931,0.35075054
1739387930702,0.002130529,0.0010652645,-0.002130529,-0.10295067,9.574412,0.34715924
1739387930708,0.0010652645,0.002130529,-0.0010652645,-0.10175357,9.622296,0.34237084
1739387930714,0.0010652645,0.0010652645,0.0010652645,-0.108936176,9.609129,0.34596214
1739387930719,0.0010652645,0.0,0.0,-0.12449849,9.580399,0.33638534
1739387930722,0.0010652645,0.0,0.0,-0.11611878,9.607931,0.33399114
1739387930728,0.002130529,0.0,-0.0010652645,-0.12210429,9.5971575,0.34117374
1739387930733,0.0010652645,0.002130529,0.0,-0.09935937,9.582792,0.33997664
1739387930737,0.0,0.0010652645,0.0,-0.10534488,9.61272,0.35194764
1739387930743,-0.0010652645,0.0010652645,0.0,-0.11372458,9.582792,0.34237084
1739387930748,0.0,0.0010652645,0.0,-0.10534488,9.622296,0.33758244
1739387930753,-0.0010652645,0.0010652645,-0.0010652645,-0.095768064,9.615114,0.34117374
1739387930758,0.0010652645,0.0,-0.0010652645,-0.09935937,9.609129,0.32321724
1739387930762,0.0031957934,0.0010652645,0.0010652645,-0.09816227,9.5971575,0.33638534
1739387930767,0.002130529,0.0010652645,-0.0010652645,-0.11252748,9.5971575,0.35194764
1739387930769,0.002130529,0.0010652645,-0.0010652645,-0.11252748,9.5971575,0.35194764
1739387930773,-0.0010652645,0.002130529,-0.0010652645,-0.110133275,9.610326,0.34596214
1739387930778,0.0,0.002130529,-0.002130529,-0.10534488,9.593566,0.34835634
1739387930784,0.0010652645,0.0031957934,-0.0010652645,-0.12449849,9.583989,0.33758244
1739387930789,0.002130529,0.002130529,-0.0010652645,-0.11731588,9.610326,0.35194764
1739387930793,0.0,0.0010652645,0.0,-0.09935937,9.581595,0.35913026
1739387930798,0.0,0.0,0.0010652645,-0.09696517,9.593566,0.35434186
1739387930803,-0.0010652645,-0.0010652645,0.0010652645,-0.107739076,9.595961,0.34715924
1739387930808,0.0,-0.0010652645,0.0010652645,-0.10534488,9.603143,0.34715924
1739387930813,0.0010652645,0.0,0.002130529,-0.110133275,9.592369,0.35434186
1739387930818,0.0010652645,0.0010652645,0.002130529,-0.10654198,9.595961,0.36032736
1739387930820,0.0010652645,0.0010652645,0.002130529,-0.10654198,9.595961,0.36032736
1739387930823,0.0010652645,0.0010652645,0.0010652645,-0.10534488,9.588778,0.35793316
1739387930828,0.002130529,0.0010652645,0.0,-0.108936176,9.610326,0.33877954
1739387930833,0.0,0.0010652645,0.0,-0.11611878,9.587581,0.34356794
1739387930838,-0.0010652645,0.0,-0.0010652645,-0.107739076,9.589975,0.35793316
1739387930844,0.0,0.0,0.0,-0.110133275,9.592369,0.32441434
1739387930848,0.0,0.0,-0.0031957934,-0.12569559,9.603143,0.35793316
1739387930853,0.0,0.0010652645,-0.002130529,-0.12090719,9.610326,0.35194764
1739387930857,0.0010652645,0.0010652645,-0.0010652645,-0.11611878,9.606734,0.35553896
1739387930862,0.002130529,0.002130529,0.0,-0.12210429,9.604341,0.36152446
1739387930868,0.0,0.0010652645,0.0,-0.11252748,9.606734,0.35673606
1739387930873,0.0,0.002130529,-0.0010652645,-0.12449849,9.618706,0.35434186
1739387930878,0.0,0.0010652645,-0.0010652645,-0.12928689,9.5971575,0.35913026
1739387930883,0.0,0.0,-0.0010652645,-0.1340753,9.598354,0.35075054
1739387930888,-0.0010652645,0.0,0.0,-0.12689269,9.576807,0.35075054
1739387930893,0.0,0.0010652645,-0.0010652645,-0.11252748,9.600749,0.34715924
1739387930898,0.0010652645,0.0,0.0,-0.11851298,9.589975,0.34356794
1739387930903,0.0,0.0,0.0010652645,-0.10414778,9.635465,0.35194764
1739387930908,0.0010652645,-0.0010652645,0.0,-0.11851298,9.609129,0.33758244
1739387930913,0.0010652645,0.0,-0.0010652645,-0.10534488,9.574412,0.33758244
1739387930918,0.0,0.0010652645,-0.0010652645,-0.11971009,9.599552,0.35793316
1739387930923,0.0,0.0010652645,-0.002130529,-0.108936176,9.606734,0.36511576
1739387930928,0.0,0.0010652645,-0.0010652645,-0.10055647,9.604341,0.34835634
1739387930933,0.0010652645,0.0010652645,0.0,-0.11372458,9.625888,0.34237084
1739387930938,0.0,0.002130529,-0.0010652645,-0.11611878,9.601946,0.36272156
1739387930943,0.0,0.002130529,-0.0010652645,-0.108936176,9.582792,0.35194764
1739387930948,0.0,0.0010652645,-0.002130529,-0.09696517,9.588778,0.35553896
1739387930953,-0.002130529,0.0010652645,-0.002130529,-0.11252748,9.603143,0.34476504
1739387930959,-0.0010652645,0.0,-0.002130529,-0.12449849,9.605537,0.34476504
1739387930962,0.0010652645,0.0,-0.0010652645,-0.11971009,9.613917,0.34835634
1739387930967,0.002130529,0.0,0.0,-0.12090719,9.615114,0.3196259
1739387930970,0.002130529,0.0,0.0,-0.12090719,9.615114,0.3196259
1739387930973,0.0010652645,0.0,0.0010652645,-0.11372458,9.619903,0.35913026
1739387930978,0.0,0.0010652645,-0.0010652645,-0.09935937,9.587581,0.33758244
1739387930982,0.0,0.0,0.0,-0.090979666,9.595961,0.36391866
1739387930988,0.0,0.0010652645,0.0,-0.08379706,9.579201,0.35434186
1739387930993,0.0010652645,0.0010652645,-0.0010652645,-0.09816227,9.628283,0.34835634
1739387930997,0.0010652645,0.0,-0.0010652645,-0.093373865,9.616311,0.33877954
1739387931003,0.0,0.0,0.0,-0.10534488,9.592369,0.35434186
1739387931008,0.0010652645,0.0,-0.0010652645,-0.11971009,9.588778,0.35314476
1739387931013,0.0,0.0010652645,-0.0010652645,-0.11611878,9.592369,0.34117374
1739387931018,0.0,0.002130529,-0.0010652645,-0.088585466,9.587581,0.34835634
1739387931022,-0.0010652645,0.0,0.0,-0.107739076,9.603143,0.34356794
1739387931028,0.0,0.0010652645,0.0,-0.11492168,9.595961,0.34835634
1739387931033,0.0010652645,0.0,0.0,-0.110133275,9.604341,0.35793316
1739387931038,0.0,0.0,0.0010652645,-0.12928689,9.578004,0.33279404
1739387931043,0.0010652645,0.0010652645,0.0,-0.107739076,9.587581,0.35314476
1739387931048,0.002130529,0.0010652645,0.0,-0.10534488,9.594764,0.33877954
1739387931054,0.002130529,0.0010652645,0.0010652645,-0.107739076,9.569624,0.3172317
1739387931059,0.002130529,0.0,-0.0010652645,-0.11252748,9.633071,0.32800564
1739387931062,0.002130529,0.0010652645,-0.0031957934,-0.093373865,9.599552,0.33159694
1739387931068,0.002130529,0.0010652645,-0.0010652645,-0.09696517,9.555259,0.32561144
1739387931074,0.0010652645,0.0010652645,-0.002130529,-0.095768064,9.592369,0.33758244
1739387931079,-0.0010652645,0.0010652645,0.0,-0.092176765,9.611523,0.33758244
1739387931083,-0.0010652645,0.002130529,-0.0010652645,-0.08379706,9.606734,0.34356794
1739387931088,0.0,0.0,0.0,-0.11252748,9.604341,0.33279404
1739387931093,0.002130529,0.0010652645,-0.0010652645,-0.108936176,9.579201,0.34596214
1739387931098,0.002130529,0.0010652645,-0.002130529,-0.11133038,9.613917,0.36391866
1739387931103,0.0010652645,0.0010652645,-0.002130529,-0.1316811,9.624691,0.36391866
1739387931108,0.0010652645,0.0010652645,0.0,-0.11971009,9.600749,0.35075054
1739387931112,0.0,0.0010652645,-0.0010652645,-0.11611878,9.592369,0.34356794
1739387931118,0.0010652645,0.0010652645,0.0,-0.10055647,9.585187,0.35434186
1739387931123,0.002130529,0.0010652645,-0.0010652645,-0.10414778,9.591172,0.34955344
1739387931128,0.0010652645,0.002130529,-0.0010652645,-0.12449849,9.598354,0.34476504
1739387931132,0.0,0.002130529,-0.002130529,-0.12210429,9.618706,0.33399114
1739387931138,-0.0010652645,0.002130529,-0.0010652645,-0.11133038,9.610326,0.33758244
1739387931143,0.0,0.002130529,0.0,-0.11851298,9.588778,0.33877954
1739387931148,0.0,0.0010652645,0.0010652645,-0.11372458,9.594764,0.34117374
1739387931152,0.0,0.002130529,0.0010652645,-0.093373865,9.622296,0.34596214
1739387931158,-0.0010652645,0.002130529,0.0,-0.09696517,9.595961,0.33638534
1739387931162,-0.0010652645,0.0010652645,-0.0010652645,-0.11851298,9.5732155,0.33997664
1739387931168,0.0,0.0010652645,-0.0010652645,-0.10055647,9.594764,0.36152446
1739387931172,-0.0010652645,0.0010652645,-0.0010652645,-0.107739076,9.604341,0.36750996
1739387931178,0.0,0.0010652645,0.0,-0.095768064,9.611523,0.34596214
1739387931182,0.0010652645,0.002130529,0.0010652645,-0.10055647,9.598354,0.34356794
1739387931188,0.0010652645,0.0010652645,0.0,-0.12569559,9.546879,0.36990416
1739387931193,0.0010652645,0.002130529,-0.0010652645,-0.11611878,9.588778,0.35194764
1739387931198,0.0,0.002130529,-0.002130529,-0.12090719,9.563639,0.35673606
1739387931203,0.0,0.0010652645,-0.0010652645,-0.10534488,9.588778,0.34596214
1739387931209,0.0,0.0010652645,0.0,-0.11971009,9.579201,0.35434186
1739387931213,0.0010652645,0.002130529,0.0,-0.107739076,9.611523,0.33518824
1739387931219,0.0010652645,0.0010652645,-0.0010652645,-0.11372458,9.593566,0.32800564
1739387931223,0.0,0.0010652645,0.0,-0.1352724,9.586384,0.34356794
1739387931229,0.0,0.002130529,-0.0010652645,-0.14963761,9.5971575,0.34835634
1739387931233,0.002130529,0.0010652645,0.0,-0.11971009,9.605537,0.34117374
1739387931238,0.0010652645,0.002130529,-0.0010652645,-0.11133038,9.617508,0.36032736
1739387931243,0.0010652645,0.002130529,-0.002130529,-0.108936176,9.61272,0.34835634
1739387931248,0.0010652645,0.002130529,-0.0010652645,-0.11372458,9.611523,0.35194764
1739387931253,0.0010652645,0.002130529,0.0,-0.12090719,9.600749,0.34356794
1739387931255,0.0010652645,0.002130529,0.0,-0.12090719,9.600749,0.34356794
1739387931259,0.0,0.0010652645,-0.0010652645,-0.12210429,9.604341,0.33997664
1739387931264,0.002130529,0.0010652645,0.0010652645,-0.090979666,9.611523,0.34835634
1739387931268,0.004261058,0.0,0.0010652645,-0.089782566,9.589975,0.35434186
1739387931273,0.002130529,0.0,0.0,-0.110133275,9.604341,0.35553896
1739387931279,0.0031957934,0.0010652645,-0.0010652645,-0.11971009,9.55885,0.35793316
1739387931283,0.0031957934,0.002130529,0.0,-0.11731588,9.580399,0.35075054
1739387931289,0.0010652645,0.002130529,0.0,-0.11611878,9.5732155,0.33758244
1739387931293,0.0010652645,0.0010652645,0.0,-0.11611878,9.566033,0.34237084
1739387931298,0.0010652645,0.0010652645,0.0,-0.12330139,9.585187,0.34117374
1739387931303,0.0010652645,0.0010652645,0.0010652645,-0.108936176,9.622296,0.3196259
1739387931307,0.002130529,0.0010652645,0.0,-0.12090719,9.606734,0.34237084
1739387931313,0.002130529,0.002130529,0.0010652645,-0.10175357,9.588778,0.35673606
1739387931318,0.002130529,0.002130529,0.0010652645,-0.10175357,9.609129,0.36990416
1739387931323,0.0010652645,0.0010652645,0.0,-0.10534488,9.634268,0.34955344
1739387931328,0.0010652645,0.0010652645,0.0,-0.107739076,9.622296,0.35314476
1739387931333,0.0,0.0010652645,0.0,-0.092176765,9.636662,0.35553896
1739387931338,0.0,0.0010652645,0.0,-0.10654198,9.595961,0.34476504
1739387931343,-0.0010652645,0.002130529,-0.0010652645,-0.11611878,9.583989,0.34476504
1739387931348,0.0,0.002130529,-0.002130529,-0.12090719,9.617508,0.36511576
1739387931350,0.0,0.002130529,-0.002130529,-0.12090719,9.617508,0.36511576
1739387931354,0.0,-0.0010652645,-0.002130529,-0.11971009,9.594764,0.37469256
1739387931359,0.0,0.0,-0.0010652645,-0.11611878,9.604341,0.35793316
1739387931363,0.0,0.0010652645,-0.002130529,-0.11372458,9.57561,0.34715924
1739387931368,-0.0010652645,0.0010652645,0.0,-0.11133038,9.5732155,0.35673606
1739387931373,-0.0010652645,-0.0010652645,-0.0010652645,-0.11492168,9.563639,0.36152446
1739387931379,0.0,0.0,-0.002130529,-0.130484,9.579201,0.34237084
1739387931385,0.0010652645,0.0010652645,0.0,-0.11971009,9.618706,0.34955344
1739387931390,0.0,0.0010652645,-0.0010652645,-0.11372458,9.609129,0.36032736
1739387931394,0.0,0.0,-0.0010652645,-0.12569559,9.598354,0.34835634
1739387931399,-0.0010652645,0.0010652645,-0.0010652645,-0.11372458,9.622296,0.36631286
1739387931403,0.0,0.0010652645,0.0,-0.10414778,9.618706,0.33279404
1739387931408,0.0,0.0,-0.002130529,-0.10295067,9.601946,0.34356794
1739387931413,0.0,0.0,-0.002130529,-0.11971009,9.586384,0.33279404
1739387931419,0.0,0.0,-0.002130529,-0.11252748,9.594764,0.34117374
1739387931424,-0.0010652645,0.0010652645,-0.0010652645,-0.10055647,9.598354,0.35793316
1739387931428,-0.0010652645,0.0010652645,0.0,-0.108936176,9.585187,0.33758244
1739387931433,-0.0010652645,0.0,-0.0010652645,-0.095768064,9.569624,0.35314476
1739387931439,0.0,0.0010652645,-0.0010652645,-0.110133275,9.588778,0.36152446
1739387931443,0.0,0.0010652645,-0.0010652645,-0.12090719,9.609129,0.34596214
1739387931448,0.0,0.0010652645,0.0,-0.11851298,9.600749,0.34596214
1739387931453,0.0010652645,0.0010652645,0.0,-0.11133038,9.600749,0.35434186
1739387931459,0.0010652645,0.0010652645,0.0010652645,-0.09816227,9.55047,0.36272156
1739387931463,0.0010652645,0.0010652645,0.0,-0.107739076,9.561244,0.36032736
1739387931467,0.0010652645,0.0010652645,-0.0010652645,-0.11372458,9.5385,0.36032736
1739387931473,0.0010652645,0.002130529,-0.0010652645,-0.11492168,9.554062,0.36152446
1739387931478,0.0010652645,0.002130529,-0.002130529,-0.12449849,9.598354,0.34237084
1739387931483,0.0010652645,0.0010652645,-0.002130529,-0.12808979,9.619903,0.32800564
1739387931488,0.0,0.0010652645,-0.0010652645,-0.107739076,9.633071,0.33638534
1739387931494,0.0,0.0,-0.0010652645,-0.10414778,9.580399,0.34356794
1739387931499,0.0,0.0010652645,0.0,-0.130484,9.569624,0.34476504
1739387931503,0.0010652645,0.0010652645,0.0,-0.12330139,9.557653,0.33399114
1739387931508,0.0010652645,0.0,0.0,-0.10055647,9.582792,0.34715924
1739387931513,0.0,0.0,0.0,-0.12210429,9.583989,0.33758244
1739387931518,-0.0010652645,0.0,-0.0010652645,-0.110133275,9.605537,0.34955344
1739387931523,0.0010652645,0.0,-0.002130529,-0.095768064,9.572019,0.33877954
1739387931528,0.0010652645,0.0,-0.0010652645,-0.08738836,9.589975,0.34955344
1739387931533,0.0010652645,0.0010652645,0.0,-0.09816227,9.606734,0.36631286
1739387931539,0.0010652645,0.0,-0.0010652645,-0.09816227,9.586384,0.34237084
1739387931542,0.0010652645,0.0,-0.002130529,-0.11372458,9.5732155,0.33758244
1739387931548,0.0,0.0010652645,0.0,-0.11731588,9.609129,0.35673606
1739387931553,-0.0010652645,0.0,-0.0010652645,-0.110133275,9.5971575,0.35793316
1739387931559,0.0,0.0010652645,0.0,-0.11492168,9.585187,0.35194764
1739387931560,0.0,0.0010652645,0.0,-0.11492168,9.585187,0.35194764
1739387931563,0.0,0.0010652645,0.0,-0.12090719,9.587581,0.35673606
1739387931570,-0.0010652645,0.0010652645,-0.0010652645,-0.11971009,9.592369,0.34356794
1739387931573,-0.0010652645,0.002130529,-0.002130529,-0.108936176,9.589975,0.34237084
1739387931579,-0.0010652645,0.002130529,-0.002130529,-0.095768064,9.593566,0.34356794
1739387931583,-0.0010652645,0.002130529,0.0,-0.10414778,9.609129,0.32800564
1739387931589,-0.0010652645,0.002130529,0.0,-0.11971009,9.580399,0.34476504
1739387931593,-0.0010652645,0.002130529,0.0,-0.10175357,9.61272,0.34237084
1739387931599,-0.002130529,0.0010652645,-0.002130529,-0.09696517,9.599552,0.34715924
1739387931603,0.0,0.0010652645,-0.002130529,-0.10055647,9.57561,0.33518824
1739387931609,0.0,0.0010652645,-0.002130529,-0.11971009,9.616311,0.36511576
1739387931614,0.0,0.0,0.0,-0.11611878,9.631873,0.34356794
1739387931620,0.0,0.0,0.0,-0.11611878,9.631873,0.34356794
1739387931625,-0.0010652645,-0.0010652645,-0.0010652645,-0.09696517,9.576807,0.33159694
1739387931629,-0.002130529,-0.0010652645,0.0010652645,-0.107739076,9.605537,0.34237084
1739387931633,-0.0010652645,0.0010652645,0.0,-0.11252748,9.572019,0.34237084
1739387931638,-0.0010652645,0.0010652645,-0.002130529,-0.107739076,9.576807,0.36750996
1739387931644,-0.0010652645,0.0010652645,-0.002130529,-0.09935937,9.574412,0.34596214
1739387931648,0.0,0.0010652645,-0.0010652645,-0.10175357,9.600749,0.35314476
1739387931652,0.0,0.0010652645,-0.0010652645,-0.10654198,9.606734,0.33399114
1739387931658,-0.0010652645,0.0010652645,-0.0010652645,-0.1340753,9.601946,0.34476504
1739387931660,-0.0010652645,0.0010652645,-0.0010652645,-0.1340753,9.601946,0.34476504
1739387931663,0.0,0.0,-0.0010652645,-0.10414778,9.604341,0.33997664
1739387931669,0.0010652645,0.0010652645,-0.0010652645,-0.107739076,9.579201,0.320823
1739387931674,0.0010652645,0.0,0.0,-0.093373865,9.555259,0.35673606
1739387931679,0.0010652645,0.0,0.0,-0.077811554,9.594764,0.34715924
1739387931683,0.0,0.0010652645,-0.0010652645,-0.10295067,9.598354,0.36511576
1739387931689,0.0,0.0010652645,-0.0010652645,-0.11611878,9.595961,0.33518824
1739387931694,0.0010652645,0.0,-0.0010652645,-0.10175357,9.601946,0.35913026
1739387931696,0.0010652645,0.0,-0.0010652645,-0.10175357,9.601946,0.35913026
1739387931704,-0.0010652645,0.0010652645,0.0,-0.09816227,9.574412,0.35913026
1739387931708,0.0010652645,0.002130529,-0.0010652645,-0.12689269,9.617508,0.33877954
1739387931714,0.0,0.0010652645,-0.002130529,-0.092176765,9.5971575,0.32800564
1739387931716,0.0,0.0010652645,-0.002130529,-0.092176765,9.5971575,0.32800564
1739387931719,0.0,0.0010652645,-0.002130529,-0.107739076,9.582792,0.32920274
1739387931723,0.0,0.002130529,0.0,-0.12928689,9.593566,0.34596214
1739387931729,0.0010652645,0.0010652645,-0.0010652645,-0.108936176,9.611523,0.33758244
1739387931734,0.0,0.0010652645,-0.0010652645,-0.12210429,9.61272,0.34237084
1739387931739,0.0,0.0010652645,0.0,-0.11611878,9.591172,0.33399114
1739387931743,0.0,0.0,-0.002130529,-0.11252748,9.574412,0.33279404
1739387931749,-0.0010652645,0.0,-0.002130529,-0.10534488,9.603143,0.3196259
1739387931753,0.0,0.0010652645,0.0,-0.110133275,9.611523,0.33997664
1739387931758,0.0010652645,0.0010652645,-0.0010652645,-0.10414778,9.610326,0.34835634
1739387931760,0.0010652645,0.0010652645,-0.0010652645,-0.10414778,9.610326,0.34835634
1739387931765,0.0010652645,0.002130529,-0.0010652645,-0.110133275,9.600749,0.35793316
1739387931767,0.0010652645,0.002130529,-0.0010652645,-0.110133275,9.600749,0.35793316
1739387931772,0.002130529,0.002130529,0.0,-0.10534488,9.585187,0.37229836
1739387931775,0.002130529,0.002130529,0.0,-0.10534488,9.585187,0.37229836
1739387931783,0.0010652645,0.0,-0.0010652645,-0.11851298,9.579201,0.34715924
1739387931789,0.0010652645,-0.0010652645,0.0,-0.10055647,9.55885,0.34835634
1739387931794,0.0,0.0010652645,-0.0010652645,-0.12808979,9.56723,0.34117374
1739387931799,0.0,0.0010652645,-0.0010652645,-0.12808979,9.56723,0.34117374
1739387931800,0.0,0.0010652645,-0.0010652645,-0.12808979,9.56723,0.34117374
1739387931809,0.0010652645,0.0,-0.0010652645,-0.09696517,9.588778,0.35434186
1739387931814,0.0,0.0010652645,0.0,-0.095768064,9.582792,0.35194764
1739387931819,0.0,0.0010652645,-0.0010652645,-0.092176765,9.572019,0.33758244
1739387931823,0.0010652645,0.0010652645,-0.0010652645,-0.107739076,9.605537,0.35075054
1739387931829,0.0010652645,0.0010652645,-0.0010652645,-0.107739076,9.594764,0.35913026
1739387931833,0.0010652645,0.0010652645,-0.0010652645,-0.092176765,9.55885,0.36391866
1739387931839,-0.0010652645,0.002130529,-0.002130529,-0.09816227,9.593566,0.35434186
1739387931844,0.0,0.0010652645,-0.0010652645,-0.09935937,9.589975,0.37588966
1739387931846,0.0,0.0010652645,-0.0010652645,-0.09935937,9.589975,0.37588966
1739387931849,0.0,0.0010652645,0.0,-0.11851298,9.601946,0.36511576
1739387931854,0.002130529,0.0010652645,-0.0010652645,-0.10175357,9.56723,0.34117374
1739387931859,0.0031957934,0.0,-0.0010652645,-0.10654198,9.607931,0.32800564
1739387931863,0.0053263223,0.002130529,0.002130529,-0.11731588,9.591172,0.35194764
1739387931869,0.007456851,0.0010652645,0.002130529,-0.093373865,9.579201,0.35673606
1739387931873,0.0031957934,0.0,0.0,-0.093373865,9.578004,0.34356794
1739387931879,0.0,0.0,0.0,-0.08619126,9.5732155,0.33638534
1739387931883,0.002130529,0.0,0.0010652645,-0.11133038,9.55885,0.35194764
1739387931889,0.0031957934,0.0,0.0,-0.10055647,9.574412,0.34596214
1739387931893,0.0010652645,0.0010652645,-0.0010652645,-0.110133275,9.552865,0.35194764
1739387931899,0.0,0.0010652645,-0.002130529,-0.11731588,9.613917,0.34596214
1739387931903,0.002130529,0.002130529,-0.0010652645,-0.11133038,9.586384,0.35314476
1739387931909,0.002130529,0.0010652645,0.0,-0.11372458,9.568427,0.36032736
1739387931914,0.0010652645,0.002130529,-0.0010652645,-0.107739076,9.61272,0.35553896
1739387931920,0.0010652645,0.0,-0.0010652645,-0.09935937,9.603143,0.34117374
1739387931923,0.0,0.0,0.0,-0.09935937,9.598354,0.35075054
1739387931929,0.0010652645,0.0,-0.0010652645,-0.092176765,9.605537,0.33758244
1739387931933,0.0010652645,0.0010652645,-0.002130529,-0.10534488,9.603143,0.34117374
1739387931939,0.0010652645,0.0,-0.002130529,-0.107739076,9.598354,0.34356794
1739387931943,0.0,0.0010652645,-0.0010652645,-0.107739076,9.617508,0.33638534
1739387931948,0.0,0.0010652645,-0.002130529,-0.088585466,9.589975,0.34476504
1739387931953,0.0010652645,0.0010652645,-0.0010652645,-0.10534488,9.595961,0.35194764
1739387931959,-0.0010652645,0.0010652645,0.0,-0.11492168,9.624691,0.35793316
1739387931963,0.0,0.0010652645,0.0,-0.108936176,9.5971575,0.34356794
1739387931968,0.002130529,0.0010652645,-0.0010652645,-0.107739076,9.585187,0.36152446
1739387931974,0.0010652645,0.0,-0.0010652645,-0.10654198,9.599552,0.33039984
1739387931979,0.0,-0.0010652645,0.0,-0.094570965,9.606734,0.33039984
1739387931983,0.0,0.0,0.0,-0.11731588,9.601946,0.34835634
1739387931989,0.0,-0.0010652645,-0.0010652645,-0.12090719,9.582792,0.33518824
1739387931993,-0.0010652645,0.0010652645,0.0,-0.09935937,9.609129,0.35673606
1739387931998,0.0,0.0010652645,-0.0010652645,-0.108936176,9.628283,0.35793316
1739387932000,0.0,0.0010652645,-0.0010652645,-0.108936176,9.628283,0.35793316
1739387932004,0.0,0.0,-0.0010652645,-0.10295067,9.593566,0.34476504
1739387932010,0.0,0.0,-0.0010652645,-0.10055647,9.604341,0.33399114
1739387932015,0.0010652645,0.0010652645,0.0,-0.11372458,9.611523,0.33758244
1739387932019,0.0010652645,0.0010652645,-0.0010652645,-0.08259996,9.592369,0.34715924
1739387932022,0.0,0.0010652645,-0.002130529,-0.10414778,9.578004,0.35434186
1739387932029,-0.0010652645,0.0,-0.0010652645,-0.12808979,9.574412,0.36272156
1739387932034,0.0,0.0,-0.0010652645,-0.12449849,9.574412,0.33997664
1739387932040,0.0,0.0,-0.0010652645,-0.12449849,9.574412,0.33997664
1739387932046,-0.0010652645,0.002130529,-0.0010652645,-0.11971009,9.589975,0.33997664
1739387932049,0.0010652645,0.0,-0.0010652645,-0.09816227,9.581595,0.35075054
1739387932053,0.002130529,0.0,-0.002130529,-0.108936176,9.56723,0.35075054
1739387932059,0.0,0.0,-0.0031957934,-0.095768064,9.587581,0.34596214
1739387932063,0.0010652645,0.0,-0.0010652645,-0.095768064,9.568427,0.35194764
1739387932069,0.002130529,0.0010652645,-0.0010652645,-0.092176765,9.610326,0.33279404
1739387932073,0.0,0.0010652645,0.0,-0.10295067,9.568427,0.33997664
1739387932078,0.0010652645,0.0010652645,-0.002130529,-0.11372458,9.588778,0.33159694
1739387932084,0.002130529,0.002130529,-0.002130529,-0.10175357,9.589975,0.34476504
1739387932089,0.0010652645,0.0010652645,-0.002130529,-0.10654198,9.591172,0.35793316
1739387932093,0.0010652645,0.0010652645,-0.002130529,-0.11731588,9.581595,0.35075054
1739387932099,0.0010652645,0.0010652645,0.0,-0.11133038,9.57561,0.33997664
1739387932103,0.0010652645,0.0,0.0,-0.10055647,9.610326,0.33997664
1739387932108,0.0,0.0010652645,0.0,-0.12808979,9.574412,0.36152446
1739387932113,0.0010652645,0.0010652645,-0.0010652645,-0.12449849,9.570822,0.35673606
1739387932118,0.0010652645,0.0,0.0,-0.12449849,9.561244,0.36032736
1739387932123,0.002130529,0.0,0.0,-0.12210429,9.601946,0.36511576
1739387932129,0.002130529,0.0,0.0,-0.108936176,9.599552,0.35194764
1739387932133,0.0010652645,0.0,0.0,-0.11851298,9.580399,0.34476504
1739387932139,0.0,0.0010652645,-0.0010652645,-0.12330139,9.568427,0.34237084
1739387932143,0.0,0.0,-0.002130529,-0.107739076,9.580399,0.34476504
1739387932149,0.0010652645,0.0010652645,-0.0010652645,-0.11611878,9.594764,0.35314476
1739387932154,0.0010652645,0.0010652645,-0.002130529,-0.10534488,9.57561,0.34835634
1739387932159,0.0,0.0010652645,-0.0031957934,-0.110133275,9.610326,0.34356794
1739387932161,0.0,0.0010652645,-0.0031957934,-0.110133275,9.610326,0.34356794
1739387932163,0.0010652645,0.0010652645,-0.002130529,-0.10414778,9.595961,0.33638534
1739387932168,0.0010652645,0.0,-0.0010652645,-0.11492168,9.595961,0.35075054
1739387932170,0.0010652645,0.0,-0.0010652645,-0.11492168,9.595961,0.35075054
1739387932173,0.0010652645,0.0,0.0,-0.10534488,9.574412,0.36272156
1739387932177,0.0010652645,0.0010652645,0.0,-0.12928689,9.618706,0.36152446
1739387932183,0.0010652645,0.0010652645,0.0010652645,-0.11731588,9.583989,0.35434186
1739387932188,0.0010652645,0.0010652645,0.0,-0.12808979,9.578004,0.34117374
1739387932190,0.0010652645,0.0010652645,0.0,-0.12808979,9.578004,0.34117374
1739387932195,0.0010652645,0.002130529,0.0,-0.11611878,9.594764,0.32680854
1739387932199,0.0010652645,0.002130529,0.0,-0.11611878,9.594764,0.32680854
1739387932203,0.002130529,0.0010652645,0.0,-0.10654198,9.595961,0.34476504
1739387932208,0.0,0.0010652645,-0.0010652645,-0.11252748,9.552865,0.36870706
1739387932213,0.0010652645,0.0010652645,0.0,-0.16280572,9.668983,0.45968673
1739387932219,-0.0010652645,0.0,-0.002130529,-0.11971009,9.532514,0.34117374
1739387932224,0.0010652645,0.0010652645,0.0,-0.092176765,9.526528,0.29927522
1739387932228,-0.004261058,0.0010652645,0.0,-0.077811554,9.589975,0.2633622
1739387932233,0.002130529,0.002130529,0.0,-0.06823475,9.610326,0.28491
1739387932237,0.002130529,0.002130529,0.0,-0.094570965,9.586384,0.2896984
1739387932243,0.0010652645,0.0010652645,0.0,-0.08140286,9.633071,0.32441434
1739387932248,0.0010652645,0.0010652645,-0.0010652645,-0.10414778,9.610326,0.33877954
1739387932252,0.0031957934,0.0031957934,0.0010652645,-0.12449849,9.561244,0.36511576
1739387932258,0.002130529,0.0010652645,0.0010652645,-0.1376666,9.588778,0.38067806
1739387932263,0.0,0.0010652645,0.0010652645,-0.14604631,9.618706,0.3866636
1739387932268,-0.0010652645,0.0010652645,-0.0010652645,-0.1340753,9.580399,0.3854665
1739387932273,0.0010652645,0.0010652645,-0.002130529,-0.12210429,9.586384,0.41180268
1739387932279,0.0010652645,0.0010652645,-0.0010652645,-0.108936176,9.544485,0.38307226
1739387932283,0.0,0.0010652645,-0.0010652645,-0.093373865,9.568427,0.36152446
1739387932288,0.0,0.0010652645,0.0,-0.08738836,9.599552,0.33399114
1739387932292,-0.0010652645,0.0010652645,0.0,-0.092176765,9.621099,0.3172317
1739387932298,0.0010652645,0.002130529,0.0010652645,-0.08259996,9.593566,0.320823
1739387932302,0.0010652645,0.002130529,0.0010652645,-0.09935937,9.562442,0.32441434
1739387932307,0.0010652645,0.0010652645,0.0010652645,-0.093373865,9.616311,0.31244332
1739387932313,0.0,0.002130529,-0.0010652645,-0.11133038,9.613917,0.3172317
1739387932318,0.0,0.0031957934,0.0,-0.10654198,9.606734,0.33399114
1739387932322,0.0031957934,0.0010652645,0.0010652645,-0.12330139,9.552865,0.36032736
1739387932327,0.002130529,0.0010652645,0.0010652645,-0.12689269,9.556456,0.33159694
1739387932329,0.002130529,0.0010652645,0.0010652645,-0.12689269,9.556456,0.33159694
1739387932334,0.002130529,0.0010652645,-0.0010652645,-0.11252748,9.568427,0.33877954
1739387932339,0.002130529,0.0,-0.0010652645,-0.1352724,9.572019,0.36750996
1739387932343,0.0010652645,0.0010652645,-0.0010652645,-0.11731588,9.616311,0.36032736
1739387932348,-0.0010652645,0.0010652645,-0.0031957934,-0.12689269,9.621099,0.35075054
1739387932353,-0.002130529,0.002130529,-0.0031957934,-0.108936176,9.572019,0.36272156
1739387932358,0.0,0.002130529,-0.0010652645,-0.10654198,9.576807,0.36032736
1739387932363,0.0010652645,0.002130529,0.0010652645,-0.10534488,9.589975,0.33877954
1739387932368,0.0010652645,0.0010652645,0.0010652645,-0.094570965,9.580399,0.34476504
1739387932373,0.0010652645,0.002130529,-0.0010652645,-0.09696517,9.599552,0.33159694
1739387932378,0.0,0.0010652645,-0.0010652645,-0.10414778,9.610326,0.33279404
1739387932383,0.0,0.0,-0.002130529,-0.11851298,9.578004,0.35075054
1739387932388,0.002130529,0.0010652645,-0.002130529,-0.11252748,9.562442,0.36032736
1739387932393,0.002130529,0.0010652645,-0.0010652645,-0.10055647,9.601946,0.36631286
1739387932399,0.0010652645,0.002130529,0.0,-0.11252748,9.599552,0.36391866
1739387932403,0.0,0.002130529,0.0,-0.1376666,9.568427,0.36631286
1739387932409,0.0010652645,0.002130529,-0.0010652645,-0.12090719,9.616311,0.37229836
1739387932414,0.0010652645,0.0010652645,-0.0010652645,-0.1328782,9.588778,0.36032736
1739387932420,0.0,0.0010652645,0.0,-0.12808979,9.580399,0.37229836
1739387932424,0.0010652645,0.0010652645,0.0,-0.10295067,9.592369,0.33518824
1739387932430,0.0010652645,0.0010652645,-0.0010652645,-0.09935937,9.582792,0.33279404
1739387932435,0.0,0.0010652645,0.0,-0.10055647,9.589975,0.34117374
1739387932440,0.0010652645,0.0,-0.0010652645,-0.110133275,9.562442,0.33159694
1739387932445,0.0010652645,0.0,-0.0010652645,-0.108936176,9.57561,0.34835634
1739387932449,0.0,0.0010652645,-0.0010652645,-0.11851298,9.55047,0.35434186
1739387932454,-0.0010652645,0.0010652645,0.0,-0.12689269,9.593566,0.35793316
1739387932460,0.0,0.002130529,0.0,-0.12569559,9.582792,0.37708676
1739387932464,0.0,0.0010652645,-0.0010652645,-0.1376666,9.581595,0.36152446
1739387932469,0.0010652645,0.0010652645,-0.0010652645,-0.12449849,9.592369,0.35553896
1739387932474,-0.0010652645,0.002130529,0.0,-0.10295067,9.580399,0.35434186
1739387932481,0.0010652645,0.0010652645,-0.0010652645,-0.10534488,9.611523,0.34356794
1739387932484,0.0010652645,0.0,-0.002130529,-0.08259996,9.599552,0.34237084
1739387932490,0.002130529,0.0010652645,-0.0010652645,-0.088585466,9.617508,0.35075054
1739387932493,0.002130529,0.002130529,0.0,-0.11133038,9.599552,0.34476504
1739387932499,0.0,0.0010652645,0.0,-0.11492168,9.598354,0.33159694
1739387932504,0.0010652645,0.0010652645,-0.002130529,-0.12330139,9.574412,0.35075054
1739387932509,0.0010652645,0.0010652645,-0.002130529,-0.11611878,9.598354,0.35793316
1739387932514,0.0,0.002130529,-0.0010652645,-0.108936176,9.613917,0.35314476
1739387932520,0.0,0.002130529,-0.0010652645,-0.11731588,9.611523,0.34596214
1739387932525,0.0010652645,0.002130529,-0.0010652645,-0.1328782,9.594764,0.35194764
1739387932530,0.0010652645,0.002130529,-0.0010652645,-0.1352724,9.593566,0.33399114
1739387932534,0.0010652645,0.002130529,-0.0010652645,-0.1352724,9.593566,0.33399114
1739387932539,0.0010652645,0.0010652645,-0.0010652645,-0.12090719,9.595961,0.33997664
1739387932543,0.0,0.0,0.0,-0.10534488,9.592369,0.35673606
1739387932547,0.0,0.0,0.0,-0.10534488,9.592369,0.35673606
1739387932550,0.0010652645,0.0010652645,0.0,-0.10654198,9.605537,0.36511576
1739387932554,0.0010652645,0.0010652645,-0.0010652645,-0.093373865,9.589975,0.35553896
1739387932559,0.0,0.0010652645,-0.0010652645,-0.08499416,9.586384,0.33399114
1739387932561,0.0,0.0010652645,-0.0010652645,-0.08499416,9.586384,0.33399114
1739387932568,0.0,0.0010652645,0.0010652645,-0.09816227,9.595961,0.36152446
1739387932574,0.0010652645,0.0,0.0010652645,-0.11372458,9.594764,0.33399114
1739387932579,0.0010652645,0.0010652645,-0.0010652645,-0.11372458,9.55885,0.34237084
1739387932582,0.0010652645,0.0010652645,-0.0010652645,-0.11372458,9.55885,0.34237084
1739387932588,0.0010652645,0.0010652645,0.0,-0.12928689,9.555259,0.37708676
1739387932593,0.0010652645,0.0010652645,0.0,-0.12330139,9.599552,0.34476504
1739387932599,0.0,0.0,-0.0010652645,-0.12090719,9.607931,0.34955344
1739387932602,-0.0010652645,0.0010652645,0.0,-0.12210429,9.604341,0.35314476
1739387932609,-0.0010652645,0.002130529,0.0010652645,-0.10534488,9.576807,0.34237084
1739387932614,0.0,0.0010652645,0.0,-0.10534488,9.561244,0.32202014
1739387932620,0.0,0.0010652645,0.0,-0.10534488,9.561244,0.32202014
1739387932624,0.0,0.0010652645,-0.0010652645,-0.09696517,9.57561,0.33638534
1739387932628,0.0010652645,0.0010652645,-0.0010652645,-0.09935937,9.616311,0.33159694
1739387932634,0.0,0.002130529,-0.0010652645,-0.08738836,9.570822,0.3196259
1739387932640,0.0,0.002130529,-0.002130529,-0.093373865,9.587581,0.34476504
1739387932644,0.0010652645,0.002130529,0.0,-0.12569559,9.646238,0.35194764
1739387932648,-0.0010652645,0.002130529,0.0,-0.11133038,9.594764,0.35793316
1739387932653,0.0010652645,0.0010652645,-0.0010652645,-0.10534488,9.490616,0.36631286
1739387932658,0.0031957934,0.0010652645,-0.0010652645,-0.10534488,9.533711,0.3842694
1739387932663,0.0010652645,0.0,0.0,-0.12569559,9.633071,0.36272156
1739387932668,-0.0010652645,0.0010652645,0.0,-0.11133038,9.640253,0.34237084
1739387932673,0.0010652645,0.002130529,-0.0010652645,-0.110133275,9.578004,0.36511576
1739387932678,0.0010652645,0.0010652645,-0.002130529,-0.108936176,9.587581,0.35314476
1739387932683,-0.0010652645,0.0010652645,-0.0010652645,-0.08499416,9.5732155,0.34835634
1739387932688,0.0,0.002130529,-0.002130529,-0.094570965,9.563639,0.34237084
1739387932693,0.002130529,0.0010652645,-0.0010652645,-0.11611878,9.580399,0.35075054
1739387932699,0.0,0.0010652645,0.0,-0.11851298,9.645041,0.34237084
1739387932703,0.0,0.0,-0.0010652645,-0.11851298,9.617508,0.33997664
1739387932708,0.0,0.0,-0.002130529,-0.10414778,9.548077,0.33758244
1739387932712,0.0010652645,0.0010652645,-0.0010652645,-0.11731588,9.569624,0.34356794
1739387932718,-0.0010652645,0.002130529,0.0010652645,-0.12449849,9.618706,0.34117374
1739387932722,0.0010652645,0.0010652645,0.0,-0.110133275,9.576807,0.36272156
1739387932728,0.002130529,0.0010652645,-0.0010652645,-0.12569559,9.609129,0.35673606
1739387932733,0.0,0.0010652645,-0.0010652645,-0.11971009,9.600749,0.38307226
1739387932738,-0.0010652645,0.0,-0.002130529,-0.11492168,9.589975,0.38067806
1739387932743,0.0010652645,0.0,-0.002130529,-0.11252748,9.57561,0.36750996
1739387932749,0.002130529,0.002130529,0.0,-0.10654198,9.622296,0.33638534
1739387932754,0.0,0.002130529,-0.0010652645,-0.10654198,9.622296,0.33638534
1739387932759,-0.0010652645,0.002130529,-0.002130529,-0.10295067,9.533711,0.33877954
1739387932763,0.002130529,0.0010652645,-0.0010652645,-0.10295067,9.533711,0.33877954
1739387932769,0.0,0.0010652645,-0.0010652645,-0.090979666,9.548077,0.36152446
1739387932773,0.0,0.0010652645,0.0,-0.10295067,9.5732155,0.36750996
1739387932778,0.002130529,0.0010652645,0.0,-0.12569559,9.592369,0.35673606
1739387932783,0.0,0.0010652645,0.0,-0.12689269,9.592369,0.35913026
1739387932789,0.0,0.0010652645,0.0,-0.12330139,9.593566,0.35194764
1739387932793,0.0010652645,0.0010652645,-0.002130529,-0.11731588,9.580399,0.34715924
1739387932799,0.0010652645,0.0010652645,-0.0010652645,-0.12689269,9.551667,0.3196259
1739387932802,0.0010652645,0.0010652645,-0.0010652645,-0.11252748,9.586384,0.32441434
1739387932808,0.0,0.0010652645,-0.0010652645,-0.090979666,9.621099,0.31603462
1739387932813,0.0010652645,0.002130529,-0.0010652645,-0.107739076,9.589975,0.32920274
1739387932818,0.0,0.002130529,-0.002130529,-0.11492168,9.639056,0.34356794
1739387932822,0.0,0.0010652645,-0.0010652645,-0.11492168,9.639056,0.34356794
1739387932829,0.002130529,0.0,0.0,-0.10175357,9.586384,0.33518824
1739387932833,0.002130529,0.0,0.0010652645,-0.10295067,9.627085,0.31124622
1739387932838,0.0,0.0010652645,0.0010652645,-0.12569559,9.595961,0.32800564
1739387932843,0.0,0.0010652645,0.0,-0.12449849,9.561244,0.34237084
1739387932849,0.0010652645,0.0010652645,0.0010652645,-0.12689269,9.562442,0.33997664
1739387932852,0.0,0.0,-0.0010652645,-0.12449849,9.560047,0.33758244
1739387932859,0.0010652645,0.0,0.0010652645,-0.11731588,9.5971575,0.33638534
1739387932864,0.002130529,0.0010652645,0.0010652645,-0.11851298,9.601946,0.36032736
1739387932869,0.002130529,0.002130529,0.0010652645,-0.12449849,9.579201,0.36032736
1739387932873,0.002130529,0.002130529,0.0,-0.107739076,9.572019,0.34596214
1739387932878,0.002130529,0.002130529,0.0,-0.11492168,9.593566,0.34596214
1739387932883,0.002130529,0.0010652645,0.0010652645,-0.11492168,9.593566,0.34596214
1739387932889,-0.0010652645,0.0,-0.0010652645,-0.110133275,9.619903,0.34476504
1739387932893,-0.0010652645,0.0010652645,0.0,-0.10654198,9.61272,0.34117374
1739387932898,0.0,0.0010652645,-0.0010652645,-0.09696517,9.580399,0.33997664
1739387932900,0.0,0.0010652645,-0.0010652645,-0.09696517,9.580399,0.33997664
1739387932904,0.0,0.0010652645,-0.0031957934,-0.088585466,9.588778,0.33518824
1739387932909,0.0010652645,0.0010652645,-0.002130529,-0.09696517,9.574412,0.34237084
1739387932913,0.0,0.0,0.0,-0.10055647,9.576807,0.33518824
1739387932919,-0.0010652645,0.0010652645,-0.0010652645,-0.12330139,9.578004,0.36032736
1739387932923,-0.0010652645,0.0010652645,-0.0010652645,-0.11492168,9.587581,0.36750996
1739387932929,-0.0010652645,0.0010652645,-0.0010652645,-0.1316811,9.591172,0.35194764
1739387932934,0.0010652645,0.0010652645,0.0,-0.1352724,9.574412,0.34117374
1739387932940,-0.0010652645,0.002130529,-0.0010652645,-0.12569559,9.615114,0.35553896
1739387932943,0.0,0.002130529,0.0,-0.12569559,9.615114,0.35553896
1739387932949,0.0,0.0010652645,0.0,-0.12689269,9.605537,0.34835634
1739387932953,-0.0010652645,0.0,-0.002130529,-0.1364695,9.606734,0.35314476
1739387932959,0.0,0.0010652645,0.0,-0.11133038,9.572019,0.32800564
1739387932963,0.0010652645,0.0010652645,0.0010652645,-0.11851298,9.581595,0.35913026
1739387932969,0.0010652645,0.002130529,0.0010652645,-0.09935937,9.61272,0.36152446
1739387932973,0.002130529,0.002130529,0.0010652645,-0.094570965,9.588778,0.35075054
1739387932978,0.0010652645,0.0010652645,-0.0010652645,-0.09935937,9.568427,0.37229836
1739387932982,0.0,0.0010652645,0.0,-0.11971009,9.592369,0.35314476
1739387932988,0.0010652645,0.0,0.0,-0.108936176,9.610326,0.33997664
1739387932994,0.0,0.0010652645,0.0,-0.107739076,9.55047,0.34237084
1739387932999,0.0,0.0010652645,-0.0010652645,-0.110133275,9.598354,0.34715924
1739387933003,0.0,0.0010652645,-0.0010652645,-0.110133275,9.598354,0.34715924
1739387933008,0.0010652645,0.0,-0.0010652645,-0.11731588,9.587581,0.35075054
1739387933013,0.0,0.0,-0.0010652645,-0.11252748,9.581595,0.33518824
1739387933019,-0.0010652645,0.0010652645,-0.0010652645,-0.095768064,9.635465,0.35194764
1739387933022,0.0010652645,0.002130529,-0.0010652645,-0.107739076,9.619903,0.31603462
1739387933028,0.002130529,0.0,-0.002130529,-0.11971009,9.594764,0.32441434
1739387933033,0.0,0.0010652645,-0.0010652645,-0.09935937,9.604341,0.32202014
1739387933038,0.0010652645,0.0,-0.0010652645,-0.11611878,9.603143,0.32920274
1739387933043,0.0,0.0,-0.0010652645,-0.11492168,9.595961,0.34955344
1739387933049,0.0010652645,0.0,-0.0010652645,-0.12210429,9.587581,0.34955344
1739387933053,0.0,0.0010652645,-0.0010652645,-0.110133275,9.599552,0.36391866
1739387933059,0.0,0.0010652645,-0.0010652645,-0.12449849,9.564836,0.36032736
1739387933063,0.0010652645,0.0,-0.0010652645,-0.12449849,9.564836,0.36032736
1739387933068,0.0010652645,0.0,-0.0010652645,-0.107739076,9.603143,0.36631286
1739387933073,0.0,0.0,-0.0010652645,-0.12808979,9.592369,0.33758244
1739387933079,0.0010652645,0.0010652645,0.0,-0.108936176,9.561244,0.35793316
1739387933083,0.0010652645,0.0010652645,0.0,-0.092176765,9.613917,0.34835634
1739387933089,0.0,0.0010652645,-0.0010652645,-0.09696517,9.595961,0.32800564
1739387933093,0.0010652645,0.002130529,0.0,-0.10175357,9.611523,0.33997664
1739387933099,0.0010652645,0.0010652645,0.0,-0.12449849,9.598354,0.33518824
1739387933103,0.0010652645,0.0010652645,0.0,-0.108936176,9.582792,0.36032736
1739387933109,0.0010652645,0.0010652645,0.0010652645,-0.11372458,9.604341,0.34715924
1739387933114,0.002130529,0.0010652645,0.0,-0.11851298,9.581595,0.34715924
1739387933120,0.0010652645,0.0,0.0,-0.1340753,9.537302,0.35553896
1739387933123,0.0010652645,0.0,0.0,-0.1340753,9.537302,0.35553896
1739387933130,0.0010652645,0.0010652645,0.0,-0.11971009,9.57561,0.34117374
1739387933134,0.0010652645,0.0010652645,0.002130529,-0.12210429,9.534908,0.35434186
1739387933139,-0.0010652645,0.002130529,0.0,-0.12569559,9.564836,0.34835634
1739387933144,-0.0010652645,0.002130529,0.0,-0.12210429,9.583989,0.34955344
1739387933149,-0.0010652645,0.002130529,0.0,-0.09935937,9.569624,0.3890578
1739387933151,-0.0010652645,0.002130529,0.0,-0.09935937,9.569624,0.3890578
1739387933158,0.0010652645,0.0010652645,0.0010652645,-0.108936176,9.589975,0.36272156
1739387933163,0.002130529,0.0,0.0010652645,-0.095768064,9.579201,0.34955344
1739387933169,0.0010652645,0.0,0.0010652645,-0.11252748,9.55885,0.33877954
1739387933173,0.002130529,0.0010652645,0.002130529,-0.12569559,9.568427,0.34835634
1739387933179,0.002130529,0.0,0.0010652645,-0.074220255,9.551667,0.33159694
1739387933183,0.002130529,0.0010652645,0.002130529,-0.074220255,9.551667,0.33159694
1739387933189,0.002130529,0.0010652645,0.0031957934,-0.11252748,9.593566,0.32202014
1739387933193,0.0031957934,0.0,0.002130529,-0.12689269,9.651027,0.34117374
1739387933199,0.0010652645,0.0010652645,0.0010652645,-0.1388637,9.688137,0.37229836
1739387933203,0.0010652645,0.002130529,0.0,-0.16280572,9.671378,0.3890578
1739387933209,0.0,0.0010652645,-0.0031957934,-0.16280572,9.605537,0.39384618
1739387933213,0.0010652645,0.0,-0.0031957934,-0.14724341,9.519346,0.39145198
1739387933219,0.0010652645,0.0010652645,-0.002130529,-0.14844051,9.463082,0.3878607
1739387933223,0.0010652645,0.0,-0.0010652645,-0.12569559,9.531317,0.36511576
1739387933228,-0.0010652645,0.0,-0.0010652645,-0.12090719,9.606734,0.34715924
1739387933233,-0.0010652645,0.0,0.0,-0.11492168,9.610326,0.30765492
1739387933239,0.0,0.0,0.0,-0.095768064,9.55885,0.31244332
1739387933242,0.0010652645,0.0010652645,0.0,-0.095768064,9.55885,0.31244332
1739387933248,0.0010652645,0.0010652645,-0.0010652645,-0.09935937,9.588778,0.2789245
1739387933253,0.002130529,0.0,0.0,-0.10295067,9.605537,0.30286652
1739387933258,0.0031957934,0.0,0.0010652645,-0.107739076,9.586384,0.31364042
1739387933263,0.002130529,0.0,0.0,-0.094570965,9.57561,0.35553896
1739387933268,0.002130529,0.0010652645,0.0010652645,-0.108936176,9.568427,0.35194764
1739387933269,0.002130529,0.0010652645,0.0010652645,-0.108936176,9.568427,0.35194764
1739387933274,0.002130529,0.0010652645,0.0010652645,-0.1328782,9.5492735,0.35434186
1739387933279,0.002130529,0.0010652645,0.0010652645,-0.1388637,9.564836,0.38307226
1739387933284,0.0010652645,0.0,0.0010652645,-0.14844051,9.61272,0.39264908
1739387933291,0.0010652645,0.0,0.0010652645,-0.14844051,9.61272,0.39264908
1739387933294,0.002130529,0.0,0.002130529,-0.11731588,9.570822,0.36152446
1739387933300,0.002130529,0.0,0.002130529,-0.107739076,9.598354,0.33518824
1739387933302,0.002130529,0.0,0.0010652645,-0.107739076,9.598354,0.33518824
1739387933309,0.002130529,-0.0010652645,0.002130529,-0.107739076,9.654618,0.31603462
1739387933314,0.0010652645,0.0,0.0,-0.108936176,9.661801,0.32441434
1739387933320,0.0010652645,0.0,0.0,-0.108936176,9.661801,0.32441434
1739387933329,0.0010652645,0.002130529,0.0,-0.12330139,9.55885,0.33159694
1739387933332,0.0010652645,0.002130529,0.0,-0.11372458,9.524135,0.34356794
1739387933338,0.0,0.002130529,-0.0010652645,-0.12689269,9.595961,0.33518824
1739387933343,-0.0010652645,0.0,-0.0010652645,-0.1448492,9.609129,0.35673606
1739387933348,0.0010652645,0.0,-0.0010652645,-0.12808979,9.610326,0.34476504
1739387933353,0.0010652645,0.0,-0.0010652645,-0.089782566,9.600749,0.34835634
1739387933359,0.0010652645,0.0,-0.0010652645,-0.090979666,9.607931,0.32800564
1739387933364,0.002130529,0.0,0.0010652645,-0.090979666,9.607931,0.32800564
1739387933366,0.002130529,0.0,0.0010652645,-0.090979666,9.607931,0.32800564
1739387933369,0.0,0.0,0.0010652645,-0.107739076,9.611523,0.33758244
1739387933374,0.0,0.0010652645,-0.0010652645,-0.10175357,9.594764,0.33638534
1739387933378,-0.0010652645,0.0,-0.0010652645,-0.107739076,9.586384,0.32800564
1739387933383,-0.0010652645,0.0010652645,0.0,-0.09696517,9.599552,0.33399114
1739387933389,0.0,0.0010652645,0.0,-0.09816227,9.581595,0.33638534
1739387933394,0.002130529,0.0010652645,0.0010652645,-0.11252748,9.600749,0.34356794
1739387933399,0.0031957934,0.0010652645,0.0010652645,-0.11611878,9.55047,0.36272156
1739387933400,0.0031957934,0.0010652645,0.0010652645,-0.11611878,9.55047,0.36272156
1739387933403,0.0031957934,0.0010652645,0.0,-0.1364695,9.578004,0.37110126
1739387933408,0.0010652645,0.002130529,0.0,-0.1340753,9.545682,0.36750996
1739387933414,0.0010652645,0.0010652645,0.0010652645,-0.1388637,9.5971575,0.35434186
1739387933419,0.0010652645,0.0010652645,0.002130529,-0.12330139,9.587581,0.36032736
1739387933423,0.0010652645,0.0010652645,0.0,-0.12330139,9.587581,0.36032736
1739387933428,0.0,0.002130529,0.0,-0.11731588,9.595961,0.34356794
1739387933433,0.0,0.0010652645,-0.0010652645,-0.1328782,9.593566,0.34356794
1739387933438,0.002130529,0.002130529,0.0010652645,-0.130484,9.619903,0.33159694
1739387933443,0.0010652645,0.002130529,0.0010652645,-0.10534488,9.574412,0.35194764
1739387933448,0.0010652645,0.0010652645,0.0010652645,-0.11372458,9.595961,0.35075054
1739387933453,0.002130529,0.002130529,0.0,-0.1448492,9.5971575,0.35913026
1739387933457,0.0010652645,0.0010652645,0.0,-0.1340753,9.556456,0.37349546
1739387933460,0.0010652645,0.0010652645,0.0,-0.1340753,9.556456,0.37349546
1739387933465,0.0,0.002130529,0.0,-0.1436521,9.55885,0.37588966
1739387933469,-0.0010652645,0.0010652645,-0.0010652645,-0.1340753,9.574412,0.3842694
1739387933473,0.0010652645,0.0,-0.0010652645,-0.1316811,9.599552,0.38067806
1739387933480,0.0010652645,0.0,-0.0010652645,-0.1316811,9.613917,0.35673606
1739387933483,0.002130529,0.0,-0.0010652645,-0.1316811,9.613917,0.35673606
1739387933488,0.0010652645,0.0010652645,0.0,-0.12210429,9.627085,0.36152446
1739387933492,0.0010652645,0.0010652645,0.0,-0.12210429,9.627085,0.36152446
1739387933498,0.0031957934,0.0010652645,0.0010652645,-0.10175357,9.545682,0.35314476
1739387933503,0.0010652645,0.0,0.0010652645,-0.12569559,9.579201,0.36032736
1739387933509,0.0,0.0,0.0010652645,-0.11851298,9.576807,0.33159694
1739387933514,0.002130529,0.0,0.002130529,-0.12808979,9.588778,0.34715924
1739387933519,0.0,0.0,0.0010652645,-0.12808979,9.605537,0.34356794
1739387933523,0.0,0.0010652645,-0.0010652645,-0.11611878,9.587581,0.34476504
1739387933528,0.0,0.0010652645,0.0,-0.10654198,9.579201,0.34955344
1739387933533,0.0,0.0010652645,0.0,-0.10654198,9.579201,0.34955344
1739387933540,0.0,0.0,0.0,-0.11372458,9.587581,0.35673606
1739387933543,0.0,0.0010652645,0.0010652645,-0.11372458,9.587581,0.35673606
1739387933548,0.002130529,0.0,0.0010652645,-0.11731588,9.591172,0.36750996
1739387933552,0.002130529,0.0,0.0010652645,-0.11731588,9.591172,0.36750996
1739387933558,0.0,0.0010652645,0.0,-0.12090719,9.588778,0.33758244
1739387933563,0.0010652645,0.0010652645,0.0,-0.110133275,9.548077,0.34955344
1739387933565,0.0010652645,0.0010652645,0.0,-0.110133275,9.548077,0.34955344
1739387933569,0.0010652645,0.0010652645,0.0,-0.10414778,9.5492735,0.34955344
1739387933573,-0.0010652645,0.0010652645,0.0010652645,-0.12210429,9.637859,0.35673606
1739387933579,0.0010652645,0.0,0.0010652645,-0.11971009,9.618706,0.36631286
1739387933584,0.002130529,-0.0010652645,0.0010652645,-0.12928689,9.564836,0.36631286
1739387933590,0.002130529,-0.0010652645,0.0010652645,-0.12928689,9.564836,0.36631286
1739387933595,-0.0010652645,0.0010652645,-0.002130529,-0.14604631,9.592369,0.34715924
1739387933599,0.0010652645,0.0,-0.0010652645,-0.110133275,9.570822,0.36152446
1739387933604,0.0010652645,0.0,-0.0010652645,-0.110133275,9.570822,0.36152446
1739387933609,0.0,0.0,-0.0010652645,-0.12449849,9.591172,0.33877954
1739387933611,0.0,0.0,-0.0010652645,-0.12449849,9.591172,0.33877954
1739387933613,0.0010652645,0.0,0.0,-0.12928689,9.64145,0.35075054
1739387933618,0.0,0.0,0.0,-0.11611878,9.627085,0.35194764
1739387933623,0.0,-0.0010652645,-0.0010652645,-0.09816227,9.607931,0.35075054
1739387933628,0.0,0.0010652645,0.0,-0.09935937,9.589975,0.36750996
1739387933633,0.002130529,0.0010652645,0.0,-0.107739076,9.570822,0.33638534
1739387933639,0.002130529,0.0,-0.002130529,-0.110133275,9.552865,0.33039984
1739387933643,0.0010652645,0.0010652645,-0.002130529,-0.12928689,9.580399,0.32920274
1739387933648,0.0010652645,0.0,-0.0010652645,-0.12330139,9.574412,0.33039984
1739387933653,0.0,-0.0010652645,0.0,-0.11252748,9.606734,0.33279404
1739387933659,0.0,-0.0010652645,0.0,-0.11492168,9.613917,0.32561144
1739387933663,0.0010652645,0.0,0.0,-0.11492168,9.613917,0.32561144
1739387933667,0.0,0.0010652645,-0.0010652645,-0.12689269,9.600749,0.34596214
1739387933673,-0.002130529,0.0010652645,-0.0010652645,-0.11252748,9.594764,0.33638534
1739387933678,0.0,0.002130529,0.0,-0.11731588,9.572019,0.33638534
1739387933683,0.0010652645,0.002130529,-0.0010652645,-0.11971009,9.561244,0.34356794
1739387933688,0.0010652645,0.0010652645,-0.0010652645,-0.11133038,9.561244,0.33399114
1739387933693,0.0010652645,0.0010652645,-0.0010652645,-0.11252748,9.582792,0.35793316
1739387933698,0.0,0.0010652645,-0.0010652645,-0.11372458,9.562442,0.32800564
1739387933703,0.0,0.0010652645,-0.0010652645,-0.12330139,9.57561,0.34117374
1739387933708,0.0010652645,0.0,0.0,-0.11731588,9.57561,0.35553896
1739387933713,0.0010652645,0.0010652645,0.0,-0.11971009,9.586384,0.32920274
1739387933719,0.0010652645,0.002130529,-0.002130529,-0.15083471,9.563639,0.35075054
1739387933723,0.0,0.0010652645,-0.002130529,-0.15083471,9.563639,0.35075054
1739387933728,0.0,0.0010652645,0.0,-0.1316811,9.611523,0.36511576
1739387933733,0.0,0.002130529,0.0010652645,-0.12808979,9.613917,0.35793316
1739387933738,0.0,0.0010652645,0.0,-0.130484,9.607931,0.36870706
1739387933743,0.0,0.0010652645,0.0,-0.1340753,9.593566,0.35075054
1739387933748,0.0,0.002130529,-0.0010652645,-0.11851298,9.578004,0.35434186
1739387933749,0.0,0.002130529,-0.0010652645,-0.11851298,9.578004,0.35434186
1739387933754,0.0010652645,0.0,-0.0010652645,-0.12808979,9.583989,0.36032736
1739387933760,0.0,0.0010652645,0.0,-0.108936176,9.564836,0.33997664
1739387933764,0.0010652645,0.002130529,0.002130529,-0.10295067,9.554062,0.33997664
1739387933768,0.0010652645,0.0010652645,0.0010652645,-0.11492168,9.633071,0.34835634
1739387933773,0.0010652645,0.002130529,-0.0010652645,-0.12808979,9.654618,0.35194764
1739387933779,0.0031957934,0.0010652645,0.0010652645,-0.12449849,9.574412,0.36631286
1739387933784,0.0,0.0010652645,0.0010652645,-0.12449849,9.574412,0.36631286
1739387933786,0.0,0.0010652645,0.0010652645,-0.12449849,9.574412,0.36631286
1739387933792,-0.002130529,0.002130529,0.0010652645,-0.12928689,9.629479,0.34237084
1739387933798,0.002130529,0.0010652645,0.0,-0.12689269,9.570822,0.35434186
1739387933803,0.0,0.0010652645,-0.0010652645,-0.12330139,9.593566,0.35673606
1739387933805,0.0,0.0010652645,-0.0010652645,-0.12330139,9.593566,0.35673606
1739387933810,0.0010652645,0.0010652645,0.0,-0.12569559,9.578004,0.37110126
1739387933813,0.0010652645,0.0,-0.0010652645,-0.12330139,9.539697,0.35194764
1739387933819,0.0,0.0,0.0,-0.11611878,9.546879,0.35434186
1739387933823,-0.002130529,0.0,0.0010652645,-0.12090719,9.617508,0.35553896
1739387933828,0.0010652645,0.0,0.0,-0.12689269,9.560047,0.35194764
1739387933833,0.002130529,0.0,0.0010652645,-0.10654198,9.506178,0.36272156
1739387933838,-0.0010652645,0.0010652645,-0.0010652645,-0.1388637,9.598354,0.37229836
1739387933842,0.0010652645,0.002130529,-0.0010652645,-0.1388637,9.598354,0.37229836
1739387933848,0.002130529,0.0,-0.0010652645,-0.12210429,9.583989,0.36391866
1739387933853,0.0,0.0010652645,-0.002130529,-0.11971009,9.556456,0.34237084
1739387933859,0.0,0.002130529,-0.0010652645,-0.12090719,9.607931,0.33039984
1739387933863,0.0010652645,0.0010652645,-0.0010652645,-0.12090719,9.606734,0.32800564
1739387933868,0.0010652645,0.0010652645,0.0,-0.11252748,9.613917,0.33758244
1739387933873,0.0010652645,0.0,0.0,-0.12449849,9.629479,0.35793316
1739387933879,0.0,0.0010652645,-0.0010652645,-0.11492168,9.582792,0.32800564
1739387933884,0.0,0.0010652645,0.0,-0.108936176,9.562442,0.35673606
1739387933885,0.0,0.0010652645,0.0,-0.108936176,9.562442,0.35673606
1739387933890,0.0,-0.0010652645,-0.0010652645,-0.10654198,9.545682,0.34715924
1739387933894,0.0010652645,0.0,-0.0010652645,-0.11851298,9.539697,0.36870706
1739387933899,0.0010652645,0.0010652645,-0.002130529,-0.12808979,9.599552,0.36990416
1739387933903,0.0,0.0010652645,-0.0010652645,-0.12808979,9.599552,0.36990416
1739387933908,0.0,0.0010652645,-0.0010652645,-0.1316811,9.601946,0.35913026
1739387933914,0.0010652645,0.0010652645,-0.0010652645,-0.11133038,9.595961,0.34596214
1739387933919,-0.0010652645,0.0010652645,-0.0010652645,-0.11492168,9.591172,0.34237084
1739387933922,-0.0010652645,0.0010652645,-0.0010652645,-0.11492168,9.591172,0.34237084
1739387933928,0.0,0.0010652645,0.0,-0.11971009,9.56723,0.35434186
1739387933933,0.0,0.0010652645,0.0,-0.11971009,9.56723,0.35434186
1739387933939,-0.0010652645,0.0031957934,-0.0010652645,-0.11851298,9.580399,0.32441434
1739387933943,0.0,0.002130529,0.0,-0.107739076,9.5732155,0.34356794
1739387933949,0.0,0.002130529,-0.0010652645,-0.12330139,9.594764,0.33758244
1739387933954,0.0,0.0010652645,-0.002130529,-0.12330139,9.560047,0.35793316
1739387933956,0.0,0.0010652645,-0.002130529,-0.12330139,9.560047,0.35793316
1739387933958,0.0,0.0010652645,-0.002130529,-0.1376666,9.609129,0.35194764
1739387933963,0.0,0.0010652645,-0.0010652645,-0.1376666,9.609129,0.35194764
1739387933969,0.0010652645,0.0010652645,-0.0010652645,-0.12689269,9.586384,0.37588966
1739387933974,0.0010652645,0.0010652645,-0.0010652645,-0.12449849,9.592369,0.37349546
1739387933980,0.0010652645,0.0010652645,-0.0010652645,-0.12449849,9.592369,0.37349546
1739387933985,0.0010652645,0.002130529,0.0,-0.108936176,9.576807,0.34835634
1739387933987,0.0010652645,0.002130529,0.0,-0.108936176,9.576807,0.34835634
1739387933993,0.0010652645,0.0,0.0,-0.1316811,9.592369,0.33877954
1739387933999,0.0010652645,0.0010652645,0.0,-0.1436521,9.604341,0.33638534
1739387934003,0.0010652645,0.002130529,-0.0010652645,-0.12210429,9.569624,0.34117374
1739387934010,0.0010652645,0.002130529,0.0,-0.14724341,9.5492735,0.34117374
1739387934014,0.0,0.0010652645,0.0,-0.14844051,9.569624,0.35075054
1739387934019,0.0010652645,0.0031957934,-0.0010652645,-0.1412579,9.568427,0.32441434
1739387934024,0.0010652645,0.002130529,-0.0010652645,-0.1412579,9.568427,0.32441434
1739387934031,0.0031957934,0.0010652645,0.0010652645,-0.11372458,9.57561,0.36990416
1739387934038,0.0,-0.0010652645,-0.0010652645,-0.11372458,9.634268,0.33638534
1739387934043,0.0,-0.0010652645,-0.0010652645,-0.11372458,9.634268,0.33638534
1739387934045,0.0,-0.0010652645,-0.0010652645,-0.11372458,9.634268,0.33638534
1739387934049,-0.002130529,0.0010652645,-0.0010652645,-0.12689269,9.603143,0.34117374
1739387934054,0.0,0.0010652645,0.0,-0.12330139,9.622296,0.33758244
1739387934060,0.0010652645,0.0,-0.002130529,-0.11372458,9.634268,0.33399114
1739387934065,0.002130529,0.0010652645,-0.0010652645,-0.12449849,9.572019,0.35194764
1739387934068,0.002130529,0.0010652645,-0.0010652645,-0.12449849,9.572019,0.35194764
1739387934071,0.0010652645,0.0010652645,0.0010652645,-0.11731588,9.601946,0.35194764
1739387934075,0.0,0.0,0.0,-0.1388637,9.566033,0.33758244
1739387934080,0.0,0.002130529,0.0,-0.12808979,9.607931,0.36511576
1739387934085,0.0,0.002130529,0.0,-0.12808979,9.607931,0.36511576
1739387934093,0.0,0.0010652645,-0.002130529,-0.11971009,9.588778,0.35434186
1739387934099,0.0,0.0010652645,-0.002130529,-0.11971009,9.588778,0.35434186
1739387934104,0.0,0.0010652645,-0.0010652645,-0.1400608,9.557653,0.33518824
1739387934110,0.0,0.0010652645,-0.0010652645,-0.1400608,9.557653,0.33518824
1739387934115,0.0010652645,0.002130529,0.0,-0.12689269,9.594764,0.34835634
1739387934117,0.0010652645,0.002130529,0.0,-0.12689269,9.594764,0.34835634
1739387934123,0.0,0.0,0.0,-0.11252748,9.595961,0.35913026
1739387934129,0.0,0.0,0.0,-0.12928689,9.580399,0.35194764
1739387934134,0.0,0.0010652645,0.0,-0.11731588,9.552865,0.35673606
1739387934140,0.002130529,0.002130529,-0.0010652645,-0.1328782,9.576807,0.36032736
1739387934146,0.002130529,0.0010652645,0.0,-0.1328782,9.576807,0.36032736
1739387934151,0.0010652645,0.002130529,-0.0010652645,-0.1388637,9.554062,0.34955344
1739387934158,0.0,0.0010652645,0.0,-0.14724341,9.569624,0.35194764
1739387934164,0.0,0.0010652645,0.0010652645,-0.1328782,9.587581,0.34356794
1739387934169,0.0,0.0010652645,0.0010652645,-0.1328782,9.587581,0.34356794
1739387934171,0.0,0.0010652645,0.0010652645,-0.1328782,9.587581,0.34356794
1739387934178,0.0,0.0010652645,-0.0010652645,-0.12330139,9.554062,0.34356794
1739387934180,0.0,0.0010652645,-0.0010652645,-0.12330139,9.554062,0.34356794
1739387934183,0.0,0.0010652645,-0.0010652645,-0.12808979,9.586384,0.35194764
1739387934188,-0.0010652645,0.0010652645,-0.0010652645,-0.12449849,9.561244,0.3196259
1739387934193,-0.0010652645,0.0010652645,-0.002130529,-0.11971009,9.5732155,0.32202014
1739387934199,0.0,0.002130529,0.0010652645,-0.12928689,9.588778,0.35194764
1739387934204,0.0010652645,0.002130529,0.0010652645,-0.12928689,9.588778,0.35194764
1739387934208,0.0010652645,0.0010652645,0.0,-0.130484,9.617508,0.32920274
1739387934213,0.0010652645,0.0010652645,-0.0010652645,-0.1328782,9.56723,0.32680854
1739387934219,0.0,0.0010652645,-0.0010652645,-0.12210429,9.598354,0.33518824
1739387934223,0.0010652645,0.0010652645,0.002130529,-0.12210429,9.599552,0.33518824
1739387934229,0.002130529,0.0010652645,0.0,-0.12808979,9.594764,0.35075054
1739387934234,0.0010652645,0.0010652645,-0.0010652645,-0.107739076,9.562442,0.36750996
1739387934236,0.0010652645,0.0010652645,-0.0010652645,-0.107739076,9.562442,0.36750996
1739387934242,0.0,0.002130529,-0.0010652645,-0.12928689,9.569624,0.35673606
1739387934249,0.0,0.0010652645,0.0,-0.108936176,9.603143,0.35194764
1739387934251,0.0,0.0010652645,0.0,-0.108936176,9.603143,0.35194764
1739387934259,0.0010652645,0.002130529,0.0010652645,-0.12569559,9.598354,0.34237084
1739387934261,0.0010652645,0.002130529,0.0010652645,-0.12569559,9.598354,0.34237084
1739387934269,-0.002130529,0.0031957934,0.002130529,-0.12689269,9.604341,0.33159694
1739387934274,-0.0010652645,0.002130529,0.0010652645,-0.1376666,9.595961,0.34476504
1739387934279,-0.0010652645,0.002130529,0.0010652645,-0.1376666,9.595961,0.34476504
1739387934281,-0.0010652645,0.002130529,0.0010652645,-0.1376666,9.595961,0.34476504
1739387934286,-0.0010652645,0.002130529,0.0010652645,-0.12210429,9.578004,0.34596214
1739387934289,-0.0010652645,0.002130529,0.0010652645,-0.12210429,9.578004,0.34596214
1739387934292,0.0,0.002130529,-0.0010652645,-0.12928689,9.587581,0.34715924
1739387934298,0.0010652645,0.002130529,0.0,-0.12449849,9.582792,0.33279404
1739387934303,-0.0010652645,0.0010652645,0.0,-0.12090719,9.5732155,0.34476504
1739387934308,0.0,0.0010652645,-0.0010652645,-0.11851298,9.570822,0.33399114
1739387934314,-0.0010652645,0.002130529,-0.0010652645,-0.12210429,9.5732155,0.34596214
1739387934320,-0.0010652645,0.002130529,-0.0010652645,-0.12210429,9.5732155,0.34596214
1739387934325,0.0010652645,0.002130529,-0.0010652645,-0.11372458,9.580399,0.35075054
1739387934328,0.0010652645,0.002130529,-0.0010652645,-0.11372458,9.580399,0.35075054
1739387934332,-0.002130529,0.002130529,-0.0010652645,-0.1388637,9.595961,0.34596214
1739387934338,-0.0010652645,0.0,0.0,-0.10175357,9.564836,0.35673606
1739387934343,0.0,0.0010652645,0.0,-0.108936176,9.554062,0.36152446
1739387934348,0.0010652645,0.0010652645,0.0,-0.12330139,9.5492735,0.34955344
1739387934353,0.0,0.0010652645,-0.0010652645,-0.12689269,9.593566,0.33758244
1739387934355,0.0,0.0010652645,-0.0010652645,-0.12689269,9.593566,0.33758244
1739387934358,-0.0010652645,0.002130529,-0.0010652645,-0.1448492,9.595961,0.34476504
1739387934363,-0.002130529,0.0010652645,0.0,-0.1340753,9.569624,0.33758244
1739387934369,-0.0010652645,0.002130529,0.0,-0.12808979,9.580399,0.35793316
1739387934373,0.0,0.0010652645,0.0,-0.12569559,9.568427,0.33159694
1739387934379,0.0,0.0010652645,0.0,-0.12210429,9.591172,0.34835634
1739387934383,-0.0010652645,0.0010652645,-0.0010652645,-0.12210429,9.591172,0.34835634
1739387934388,-0.0010652645,0.0,-0.002130529,-0.11851298,9.603143,0.35913026
1739387934393,0.0,0.0,-0.002130529,-0.12569559,9.593566,0.37110126
1739387934399,0.0,0.0010652645,-0.0010652645,-0.12808979,9.574412,0.34117374
1739387934403,0.0,0.002130529,-0.0010652645,-0.1364695,9.603143,0.33279404
1739387934408,0.0,0.0031957934,0.0,-0.1448492,9.603143,0.32920274
1739387934413,0.0,0.0031957934,0.0,-0.1448492,9.588778,0.33518824
1739387934419,-0.0010652645,0.002130529,-0.0010652645,-0.12928689,9.621099,0.34955344
1739387934423,0.0,0.0010652645,-0.0010652645,-0.11971009,9.562442,0.34955344
1739387934430,0.0,0.0010652645,-0.0010652645,-0.14604631,9.580399,0.35913026
1739387934433,0.0,0.0010652645,-0.002130529,-0.1352724,9.592369,0.36152446
1739387934439,0.0,0.0010652645,-0.0010652645,-0.1364695,9.592369,0.33997664
1739387934443,0.0010652645,0.0010652645,-0.0010652645,-0.1364695,9.592369,0.33997664
1739387934448,0.0010652645,0.002130529,-0.0010652645,-0.12569559,9.578004,0.36032736
1739387934453,0.0010652645,0.002130529,-0.002130529,-0.12330139,9.611523,0.35553896
1739387934458,0.0,0.002130529,-0.0010652645,-0.12808979,9.582792,0.35553896
1739387934463,0.0,0.002130529,-0.0010652645,-0.110133275,9.591172,0.34356794
1739387934468,0.0010652645,0.0,-0.0010652645,-0.1388637,9.578004,0.34117374
1739387934473,0.0,0.0,0.0,-0.09935937,9.595961,0.36272156
1739387934478,-0.002130529,0.0010652645,-0.0010652645,-0.12449849,9.604341,0.34356794
1739387934482,-0.0010652645,0.0010652645,-0.0010652645,-0.1376666,9.57561,0.34476504
1739387934489,-0.0010652645,0.0010652645,-0.0010652645,-0.1376666,9.600749,0.32920274
1739387934494,-0.0010652645,0.0,-0.0010652645,-0.12928689,9.598354,0.34476504
1739387934499,-0.0010652645,0.0010652645,0.0,-0.12330139,9.582792,0.34356794
1739387934504,-0.0010652645,0.002130529,-0.0010652645,-0.12330139,9.582792,0.34356794
1739387934506,-0.0010652645,0.002130529,-0.0010652645,-0.12330139,9.582792,0.34356794
1739387934509,-0.0010652645,0.002130529,-0.0031957934,-0.12330139,9.556456,0.33758244
1739387934513,0.0,0.0010652645,-0.002130529,-0.11971009,9.569624,0.33997664
1739387934517,0.0,0.0,-0.0010652645,-0.11372458,9.598354,0.34715924
1739387934521,0.0,0.0,-0.0010652645,-0.11372458,9.598354,0.34715924
1739387934526,-0.0010652645,0.0010652645,-0.002130529,-0.12449849,9.570822,0.34356794
1739387934530,-0.0010652645,0.0010652645,-0.002130529,-0.12449849,9.570822,0.34356794
1739387934533,0.0010652645,0.002130529,-0.0010652645,-0.1352724,9.588778,0.33877954
1739387934539,0.0010652645,0.0,-0.0031957934,-0.12210429,9.56723,0.35194764
1739387934543,0.0010652645,0.0010652645,-0.0010652645,-0.12569559,9.582792,0.34955344
1739387934548,0.0010652645,0.002130529,-0.0010652645,-0.107739076,9.552865,0.33279404
1739387934553,0.0010652645,0.002130529,-0.0010652645,-0.107739076,9.552865,0.33279404
1739387934560,0.0010652645,0.0,0.0,-0.14604631,9.600749,0.35793316
1739387934563,0.0010652645,0.0010652645,-0.002130529,-0.14604631,9.600749,0.35793316
1739387934569,0.0010652645,0.0010652645,-0.002130529,-0.12808979,9.598354,0.35194764
1739387934574,0.0010652645,0.002130529,-0.0010652645,-0.11851298,9.599552,0.35314476
1739387934579,0.0010652645,0.002130529,-0.0010652645,-0.11851298,9.599552,0.35314476
1739387934583,0.0010652645,0.002130529,-0.0010652645,-0.11851298,9.599552,0.35314476
1739387934589,0.0,0.0010652645,0.0010652645,-0.10654198,9.56723,0.35913026
1739387934593,0.0,0.0010652645,0.0,-0.11611878,9.587581,0.35913026
1739387934598,0.0,0.0010652645,0.0,-0.1400608,9.582792,0.34835634
1739387934603,0.0,0.0010652645,-0.0010652645,-0.1340753,9.588778,0.33997664
1739387934609,0.0010652645,0.002130529,-0.002130529,-0.10534488,9.589975,0.35194764
1739387934614,0.0010652645,0.002130529,-0.0010652645,-0.10534488,9.599552,0.33758244
1739387934619,0.0,0.0010652645,0.0,-0.11731588,9.557653,0.33518824
1739387934625,0.0010652645,0.0010652645,0.0,-0.11731588,9.557653,0.33518824
1739387934629,0.0,0.0010652645,-0.0010652645,-0.1376666,9.606734,0.36152446
1739387934633,0.0,0.0,-0.0010652645,-0.12449849,9.583989,0.36391866
1739387934639,0.0,0.0,-0.002130529,-0.11372458,9.579201,0.34596214
1739387934644,0.0,0.0,-0.0010652645,-0.108936176,9.585187,0.34237084
1739387934647,0.0,0.0,-0.0010652645,-0.108936176,9.585187,0.34237084
1739387934653,0.0,0.0010652645,0.0,-0.11252748,9.609129,0.36631286
1739387934658,0.0010652645,0.002130529,0.0010652645,-0.11851298,9.582792,0.35913026
1739387934663,0.0010652645,0.002130529,0.0,-0.12689269,9.603143,0.34476504
1739387934669,0.0010652645,0.0010652645,-0.0010652645,-0.1352724,9.642648,0.34835634
1739387934674,0.0,0.0010652645,0.0,-0.1376666,9.617508,0.34356794
1739387934676,0.0,0.0010652645,0.0,-0.1376666,9.617508,0.34356794
1739387934683,0.0,0.0010652645,0.0010652645,-0.12928689,9.564836,0.33638534
1739387934689,-0.0010652645,0.0,0.0,-0.14724341,9.55885,0.34835634
1739387934693,0.0,0.002130529,0.0,-0.12928689,9.569624,0.36990416
1739387934699,0.0,0.0031957934,0.0,-0.10654198,9.582792,0.36990416
1739387934703,0.0010652645,0.002130529,-0.0010652645,-0.12090719,9.570822,0.36511576
1739387934708,0.0,0.0010652645,-0.002130529,-0.12449849,9.564836,0.36750996
1739387934713,0.0,0.0010652645,0.0,-0.1412579,9.587581,0.34117374
1739387934718,-0.0010652645,0.0031957934,-0.0010652645,-0.12808979,9.579201,0.33638534
1739387934723,-0.0010652645,0.0010652645,-0.0010652645,-0.1388637,9.601946,0.33518824
1739387934728,0.0,0.0010652645,0.0,-0.12090719,9.615114,0.34835634
1739387934734,0.0,0.0010652645,-0.002130529,-0.12808979,9.580399,0.33399114
1739387934739,-0.0010652645,0.0010652645,-0.002130529,-0.11851298,9.601946,0.36272156
1739387934745,0.0,0.0,0.0,-0.11851298,9.601946,0.36272156
1739387934749,0.0,0.0010652645,0.0,-0.11252748,9.600749,0.35314476
1739387934753,0.0010652645,0.0010652645,0.0,-0.130484,9.586384,0.34835634
1739387934759,0.0010652645,0.0010652645,0.0,-0.12449849,9.587581,0.33039984
1739387934764,0.0010652645,0.0010652645,0.0,-0.12808979,9.574412,0.34476504
1739387934765,0.0010652645,0.0010652645,0.0,-0.12808979,9.574412,0.34476504
1739387934773,0.0010652645,0.002130529,-0.002130529,-0.12330139,9.595961,0.36152446
1739387934779,0.0010652645,0.002130529,-0.0010652645,-0.11492168,9.610326,0.34117374
1739387934784,0.0010652645,0.002130529,0.0,-0.10295067,9.585187,0.35793316
1739387934790,0.0010652645,0.002130529,0.0,-0.10295067,9.585187,0.35793316
1739387934795,0.0010652645,0.002130529,0.0,-0.1340753,9.605537,0.35913026
1739387934798,0.0010652645,0.002130529,0.0,-0.1340753,9.605537,0.35913026
1739387934803,0.0010652645,0.0010652645,-0.0010652645,-0.11133038,9.600749,0.35793316
1739387934808,0.0,0.0010652645,-0.0010652645,-0.10654198,9.572019,0.33997664
1739387934813,0.0010652645,0.0010652645,-0.0010652645,-0.1328782,9.598354,0.34476504
1739387934819,0.0010652645,0.0,-0.002130529,-0.11372458,9.599552,0.33159694
1739387934823,-0.0010652645,0.0,-0.0010652645,-0.1400608,9.570822,0.33638534
1739387934828,0.0,0.0010652645,-0.0010652645,-0.142455,9.595961,0.33997664
1739387934830,0.0,0.0010652645,-0.0010652645,-0.142455,9.595961,0.33997664
1739387934834,0.0,0.0010652645,-0.0010652645,-0.12090719,9.574412,0.33758244
1739387934838,0.0,0.002130529,-0.0010652645,-0.12928689,9.574412,0.33518824
1739387934842,0.0,0.002130529,0.0,-0.12210429,9.588778,0.33518824
1739387934848,0.0010652645,0.002130529,-0.0010652645,-0.1352724,9.574412,0.36272156
1739387934854,0.0010652645,0.002130529,-0.0010652645,-0.1316811,9.562442,0.33877954
1739387934860,0.0010652645,0.002130529,-0.0010652645,-0.1316811,9.562442,0.33877954
1739387934863,0.0010652645,0.002130529,-0.0010652645,-0.1316811,9.611523,0.35075054
1739387934869,0.0,0.002130529,-0.0010652645,-0.11971009,9.576807,0.35553896
1739387934871,0.0,0.002130529,-0.0010652645,-0.11971009,9.576807,0.35553896
1739387934878,0.0,0.0010652645,-0.0010652645,-0.130484,9.545682,0.33399114
1739387934882,0.0,0.0010652645,-0.0010652645,-0.130484,9.545682,0.33399114
1739387934888,0.0,0.0010652645,0.0,-0.1364695,9.574412,0.34476504
1739387934889,0.0,0.0010652645,0.0,-0.1364695,9.574412,0.34476504
1739387934893,0.0,0.0010652645,0.0,-0.12449849,9.591172,0.33039984
1739387934898,0.0010652645,0.002130529,0.0010652645,-0.12569559,9.582792,0.33638534
1739387934903,0.0010652645,0.0010652645,0.0010652645,-0.12569559,9.562442,0.35553896
1739387934909,0.0,0.0010652645,0.0010652645,-0.108936176,9.5732155,0.33877954
1739387934914,0.0,0.0,0.0,-0.11971009,9.580399,0.36631286
1739387934920,0.0010652645,0.0,-0.0010652645,-0.12569559,9.572019,0.34715924
1739387934924,0.0,0.0010652645,0.0,-0.12569559,9.572019,0.34715924
1739387934927,0.0,0.0010652645,0.0,-0.12569559,9.572019,0.34715924
1739387934932,-0.0010652645,0.0010652645,-0.0010652645,-0.1328782,9.588778,0.33997664
1739387934939,0.0,0.0010652645,-0.002130529,-0.1376666,9.5971575,0.34955344
1739387934944,0.0,0.0010652645,0.0,-0.12210429,9.607931,0.33399114
1739387934949,0.0,0.0010652645,0.0,-0.12210429,9.607931,0.33399114
1739387934951,0.0,0.0010652645,0.0,-0.12210429,9.607931,0.33399114
1739387934958,0.002130529,0.0010652645,-0.0010652645,-0.1400608,9.581595,0.34596214
1739387934962,0.002130529,0.0010652645,-0.0010652645,-0.12449849,9.604341,0.34476504
1739387934969,0.0010652645,0.0,-0.0010652645,-0.11731588,9.576807,0.34356794
1739387934974,-0.0010652645,0.0010652645,0.0,-0.12689269,9.617508,0.34476504
1739387934976,-0.0010652645,0.0010652645,0.0,-0.12689269,9.617508,0.34476504
1739387934978,-0.0010652645,0.0,0.002130529,-0.142455,9.5732155,0.34237084
1739387934983,0.0,0.0,0.0010652645,-0.142455,9.5732155,0.34237084
1739387934989,0.0,0.002130529,0.0,-0.1328782,9.586384,0.35434186
1739387934994,0.0,0.002130529,0.0010652645,-0.11851298,9.582792,0.34237084
1739387935000,0.0,0.002130529,0.0010652645,-0.11851298,9.582792,0.34237084
1739387935005,0.0,0.0010652645,-0.0010652645,-0.1352724,9.581595,0.35075054
1739387935010,0.0,0.0010652645,-0.0010652645,-0.1352724,9.581595,0.35075054
1739387935014,0.0010652645,0.0010652645,0.0,-0.12330139,9.569624,0.34955344
1739387935020,0.0010652645,0.002130529,-0.002130529,-0.1364695,9.582792,0.33399114
1739387935024,0.0010652645,0.0010652645,-0.0010652645,-0.14604631,9.578004,0.35913026
1739387935027,0.0010652645,0.0010652645,-0.0010652645,-0.14604631,9.578004,0.35913026
1739387935034,0.0,0.0010652645,0.0,-0.12449849,9.55885,0.33279404
1739387935038,0.0,0.0010652645,0.0,-0.12449849,9.55885,0.33279404
1739387935043,0.0,0.0010652645,0.0,-0.110133275,9.578004,0.35434186
1739387935049,-0.0010652645,0.0,-0.0010652645,-0.142455,9.576807,0.35434186
1739387935054,0.0,0.0010652645,0.0,-0.1376666,9.581595,0.36631286
1739387935060,0.0,0.0010652645,0.0,-0.1376666,9.581595,0.36631286
1739387935063,-0.0010652645,0.0031957934,-0.0010652645,-0.1364695,9.600749,0.33997664
1739387935068,0.0,0.002130529,0.0,-0.1316811,9.589975,0.34955344
1739387935073,0.0010652645,0.002130529,-0.002130529,-0.14604631,9.589975,0.35434186
1739387935079,0.0010652645,0.002130529,-0.0010652645,-0.1340753,9.580399,0.34117374
1739387935084,0.0,0.002130529,0.0,-0.12808979,9.594764,0.33997664
1739387935090,0.0,0.002130529,0.0,-0.12808979,9.594764,0.33997664
1739387935095,0.0010652645,0.002130529,0.0,-0.1328782,9.555259,0.36032736
1739387935098,0.0010652645,0.002130529,0.0,-0.1328782,9.555259,0.36032736
1739387935104,0.002130529,0.0031957934,-0.0010652645,-0.10414778,9.5732155,0.35793316
1739387935109,0.0010652645,0.002130529,-0.0010652645,-0.110133275,9.556456,0.35913026
1739387935114,0.0,0.0010652645,-0.0010652645,-0.12569559,9.562442,0.34356794
1739387935116,0.0,0.0010652645,-0.0010652645,-0.12569559,9.562442,0.34356794
1739387935118,0.0,0.0010652645,-0.0010652645,-0.12330139,9.557653,0.34596214
1739387935123,0.0,0.0010652645,0.0,-0.11851298,9.554062,0.34117374
1739387935128,0.0,0.0010652645,0.0,-0.1340753,9.585187,0.35553896
1739387935132,0.0010652645,0.0010652645,0.0,-0.1364695,9.534908,0.35793316
1739387935139,0.0010652645,0.0,-0.0010652645,-0.11731588,9.586384,0.33279404
1739387935144,0.002130529,0.0010652645,-0.002130529,-0.11611878,9.613917,0.33758244
1739387935150,0.002130529,0.0010652645,-0.002130529,-0.11611878,9.613917,0.33758244
1739387935154,0.0010652645,0.0,-0.002130529,-0.12210429,9.603143,0.35075054
1739387935159,-0.0010652645,0.0,0.0,-0.12689269,9.588778,0.32680854
1739387935162,-0.0010652645,0.0,0.0,-0.12689269,9.588778,0.32680854
1739387935169,0.0,0.0010652645,-0.0010652645,-0.12689269,9.543288,0.33758244
1739387935173,0.0010652645,0.0,0.0,-0.11492168,9.552865,0.34715924
1739387935179,0.0010652645,0.0,0.0,-0.1340753,9.579201,0.33039984
1739387935184,0.0010652645,0.0010652645,-0.0010652645,-0.1316811,9.599552,0.33159694
1739387935189,0.0010652645,0.0010652645,-0.0010652645,-0.1316811,9.599552,0.33159694
1739387935191,0.0010652645,0.0010652645,-0.0010652645,-0.1316811,9.599552,0.33159694
1739387935198,-0.0010652645,0.0,0.0,-0.11611878,9.5971575,0.33399114
1739387935200,-0.0010652645,0.0,0.0,-0.11611878,9.5971575,0.33399114
1739387935203,0.0010652645,0.0,0.0010652645,-0.1328782,9.574412,0.35075054
1739387935210,0.0010652645,0.0,-0.0010652645,-0.11731588,9.568427,0.35194764
1739387935213,0.0010652645,0.0,-0.002130529,-0.10414778,9.5732155,0.33997664
1739387935218,0.0010652645,0.0010652645,-0.0010652645,-0.1352724,9.580399,0.33159694
1739387935222,0.0010652645,0.0010652645,-0.0010652645,-0.1352724,9.580399,0.33159694
1739387935228,0.0,0.0,-0.0010652645,-0.12330139,9.593566,0.34237084
1739387935230,0.0,0.0,-0.0010652645,-0.12330139,9.593566,0.34237084
1739387935233,0.0010652645,0.0,-0.002130529,-0.130484,9.588778,0.34955344
1739387935238,0.0010652645,-0.0010652645,-0.002130529,-0.12569559,9.583989,0.35434186
1739387935243,0.0010652645,0.0,-0.0010652645,-0.12449849,9.569624,0.34356794
1739387935249,0.0010652645,0.0,0.0,-0.11851298,9.5492735,0.35194764
1739387935254,0.0,0.0,0.0,-0.12928689,9.570822,0.33518824
1739387935256,0.0,0.0,0.0,-0.12928689,9.570822,0.33518824
1739387935259,0.0010652645,-0.0010652645,-0.0010652645,-0.12569559,9.603143,0.33399114
1739387935263,0.0,-0.0010652645,-0.0010652645,-0.12449849,9.585187,0.31004912
1739387935268,0.0,-0.0010652645,-0.002130529,-0.1328782,9.5971575,0.33638534
1739387935274,-0.0010652645,-0.0010652645,-0.002130529,-0.12808979,9.563639,0.36032736
1739387935279,0.0,0.0,0.0,-0.12210429,9.609129,0.34715924
1739387935284,0.0010652645,-0.0010652645,0.0010652645,-0.12210429,9.609129,0.34715924
1739387935288,-0.0010652645,0.0,-0.0010652645,-0.12449849,9.574412,0.33758244
1739387935293,0.0,0.0010652645,-0.0010652645,-0.11851298,9.572019,0.35194764
1739387935299,-0.002130529,0.0010652645,0.0,-0.11611878,9.588778,0.33997664
1739387935304,0.0010652645,0.0010652645,-0.002130529,-0.130484,9.579201,0.33997664
1739387935306,0.0010652645,0.0010652645,-0.002130529,-0.130484,9.579201,0.33997664
1739387935309,0.0,0.0010652645,-0.0010652645,-0.1316811,9.607931,0.34715924
1739387935313,-0.0010652645,0.0010652645,0.0,-0.12330139,9.627085,0.35673606
1739387935319,0.0,0.0,0.0,-0.10414778,9.56723,0.35194764
1739387935323,0.0010652645,-0.0010652645,-0.0010652645,-0.11971009,9.568427,0.34356794
1739387935328,-0.0010652645,0.0,-0.0010652645,-0.1316811,9.606734,0.35314476
1739387935331,-0.0010652645,0.0,-0.0010652645,-0.1316811,9.606734,0.35314476
1739387935336,0.0,0.0,0.0,-0.1376666,9.605537,0.33518824
1739387935342,0.0,0.0,0.0,-0.1376666,9.605537,0.33518824
1739387935347,0.0,0.0,0.002130529,-0.11492168,9.599552,0.33997664
1739387935349,0.0,0.0,0.002130529,-0.11492168,9.599552,0.33997664
1739387935354,-0.0010652645,0.0,-0.002130529,-0.11492168,9.56723,0.34356794
1739387935356,-0.0010652645,0.0,-0.002130529,-0.11492168,9.56723,0.34356794
1739387935363,0.0010652645,0.0010652645,-0.0031957934,-0.11851298,9.539697,0.33997664
1739387935368,0.0,0.0010652645,-0.0010652645,-0.1316811,9.56723,0.35194764
1739387935373,0.0,0.0010652645,-0.0010652645,-0.1316811,9.56723,0.35194764
1739387935374,0.0,0.0010652645,-0.0010652645,-0.1316811,9.56723,0.35194764
1739387935378,0.0,0.0,-0.0010652645,-0.11971009,9.566033,0.33159694
1739387935383,0.0,-0.0010652645,0.0,-0.1340753,9.5732155,0.34356794
1739387935389,0.0,-0.0010652645,0.0,-0.11851298,9.579201,0.34237084
1739387935394,0.0,-0.0010652645,-0.002130529,-0.09935937,9.578004,0.33638534
1739387935400,0.0,-0.0010652645,-0.002130529,-0.09935937,9.578004,0.33638534
1739387935403,0.0010652645,0.0010652645,-0.0010652645,-0.1328782,9.55885,0.35673606
1739387935409,0.0,-0.0010652645,0.0,-0.11971009,9.570822,0.34715924
1739387935413,0.0,-0.0010652645,-0.0010652645,-0.12569559,9.578004,0.34237084
1739387935419,-0.0010652645,0.0,0.0,-0.12330139,9.5732155,0.32800564
1739387935424,0.0,0.0010652645,-0.0031957934,-0.1376666,9.586384,0.33997664
1739387935430,0.0,0.0010652645,-0.0031957934,-0.1376666,9.586384,0.33997664
1739387935435,0.0010652645,0.0010652645,-0.0010652645,-0.1364695,9.580399,0.34237084
1739387935438,0.0010652645,0.0010652645,-0.0010652645,-0.1364695,9.580399,0.34237084
1739387935443,0.0,0.0,-0.002130529,-0.1388637,9.594764,0.34596214
1739387935448,-0.0010652645,0.0,0.0,-0.11971009,9.562442,0.35075054
1739387935454,0.0010652645,0.0,-0.0010652645,-0.11971009,9.585187,0.33518824
1739387935459,0.0,0.0010652645,0.0,-0.11611878,9.566033,0.34715924
1739387935463,0.0010652645,0.0010652645,0.0,-0.11611878,9.566033,0.34715924
1739387935468,0.0010652645,0.0,0.0,-0.12689269,9.574412,0.35075054
1739387935473,0.0,0.0,-0.0010652645,-0.12449849,9.576807,0.34117374
1739387935479,0.0,0.0,-0.0010652645,-0.12449849,9.576807,0.34117374
1739387935483,-0.0010652645,0.0,0.0,-0.1328782,9.599552,0.34476504
1739387935489,0.0,0.0,-0.0010652645,-0.11372458,9.582792,0.35793316
1739387935493,0.0010652645,0.0,-0.0010652645,-0.11731588,9.576807,0.33399114
1739387935498,0.0,0.0,-0.0010652645,-0.12689269,9.587581,0.34596214
1739387935500,0.0,0.0,-0.0010652645,-0.12689269,9.587581,0.34596214
1739387935503,0.0,0.0010652645,-0.0010652645,-0.12330139,9.5732155,0.34476504
1739387935509,-0.0010652645,0.0010652645,-0.002130529,-0.11971009,9.564836,0.35434186
1739387935514,-0.0010652645,0.0,-0.002130529,-0.12449849,9.586384,0.34117374
1739387935520,-0.0010652645,-0.0010652645,-0.0010652645,-0.1364695,9.5492735,0.34596214
1739387935525,-0.0010652645,0.0,-0.0010652645,-0.1364695,9.5492735,0.34596214
1739387935527,-0.0010652645,0.0,-0.0010652645,-0.1364695,9.5492735,0.34596214
1739387935533,0.0,0.0,-0.0010652645,-0.108936176,9.585187,0.33279404
1739387935539,0.0010652645,0.0010652645,-0.0010652645,-0.11372458,9.5732155,0.33159694
1739387935544,0.0,0.0010652645,-0.0010652645,-0.1316811,9.561244,0.34117374
1739387935545,0.0,0.0010652645,-0.0010652645,-0.1316811,9.561244,0.34117374
1739387935548,0.0010652645,0.0,-0.0010652645,-0.1328782,9.56723,0.34356794
1739387935553,0.0010652645,0.0010652645,0.0,-0.12928689,9.57561,0.32800564
1739387935559,-0.0010652645,0.0,-0.0010652645,-0.1316811,9.57561,0.34596214
1739387935564,0.0,0.0,0.0010652645,-0.12090719,9.622296,0.34835634
1739387935570,0.0,0.0,0.0010652645,-0.12090719,9.622296,0.34835634
1739387935574,0.0,0.0,0.0,-0.1364695,9.569624,0.34835634
1739387935579,0.0,-0.0010652645,-0.0010652645,-0.1316811,9.576807,0.33518824
1739387935583,0.0,0.0,-0.0010652645,-0.1316811,9.576807,0.33518824
1739387935589,0.0010652645,0.0010652645,0.0,-0.1448492,9.57561,0.34356794
1739387935594,0.002130529,0.0010652645,0.0,-0.1340753,9.55885,0.32321724
1739387935597,0.002130529,0.0010652645,0.0,-0.1340753,9.55885,0.32321724
1739387935604,0.0010652645,0.002130529,-0.0010652645,-0.11731588,9.572019,0.34237084
1739387935608,0.0010652645,0.002130529,-0.0010652645,-0.11731588,9.572019,0.34237084
1739387935613,0.0,-0.0010652645,-0.0010652645,-0.12090719,9.586384,0.35434186
1739387935618,0.0010652645,0.0010652645,-0.0010652645,-0.110133275,9.569624,0.33997664
1739387935623,0.0010652645,0.002130529,0.0010652645,-0.1316811,9.583989,0.35434186
1739387935629,0.0,-0.0010652645,0.0010652645,-0.1400608,9.581595,0.34596214
1739387935634,0.0010652645,0.0,-0.002130529,-0.1316811,9.605537,0.36511576
1739387935638,0.0,0.0010652645,-0.002130529,-0.11971009,9.5492735,0.34955344
1739387935643,0.0,0.0010652645,0.0010652645,-0.11971009,9.5492735,0.34955344
1739387935648,0.0,0.0,-0.0010652645,-0.12330139,9.574412,0.35793316
1739387935653,0.0010652645,0.0010652645,-0.002130529,-0.11971009,9.580399,0.35314476
1739387935657,0.0010652645,0.0010652645,-0.002130529,-0.11971009,9.580399,0.35314476
1739387935663,0.0,0.0,0.0010652645,-0.15203181,9.572019,0.34835634
1739387935669,-0.0010652645,0.0,0.0010652645,-0.14724341,9.557653,0.35673606
1739387935673,-0.0010652645,0.0,0.0,-0.12090719,9.580399,0.34955344
1739387935679,0.0,0.0,-0.0010652645,-0.12330139,9.560047,0.33758244
1739387935683,0.0010652645,0.0,-0.0010652645,-0.11611878,9.585187,0.35314476
1739387935689,0.0,0.0,0.0,-0.11851298,9.570822,0.35913026
1739387935693,0.0010652645,0.0,-0.002130529,-0.1328782,9.576807,0.36152446
1739387935698,0.0010652645,0.0,-0.002130529,-0.1364695,9.592369,0.35553896
1739387935703,0.0010652645,0.0,-0.0010652645,-0.1364695,9.592369,0.35553896
1739387935709,0.0010652645,0.0,-0.0010652645,-0.15083471,9.586384,0.35553896
1739387935713,0.002130529,0.0,-0.0010652645,-0.130484,9.587581,0.34955344
1739387935719,0.0010652645,0.0010652645,-0.0010652645,-0.12689269,9.613917,0.35913026
1739387935723,0.0010652645,0.0,-0.002130529,-0.12449849,9.574412,0.35075054
1739387935728,0.0,0.0,-0.002130529,-0.130484,9.566033,0.34356794
1739387935733,-0.0010652645,0.0,-0.0010652645,-0.12928689,9.609129,0.36870706
1739387935738,0.0,0.0010652645,0.0,-0.12689269,9.568427,0.34476504
1739387935743,0.0010652645,0.0010652645,0.0,-0.15442601,9.568427,0.35314476
1739387935748,0.0010652645,0.0,0.002130529,-0.1376666,9.580399,0.35194764
1739387935754,0.0010652645,-0.0010652645,0.0,-0.130484,9.593566,0.34356794
1739387935759,0.0,-0.0010652645,0.0,-0.11731588,9.574412,0.35553896
1739387935764,0.0,-0.0010652645,0.0,-0.11731588,9.574412,0.35553896
1739387935765,0.0,-0.0010652645,0.0,-0.11731588,9.574412,0.35553896
1739387935769,-0.0010652645,-0.0010652645,0.0010652645,-0.1328782,9.585187,0.34237084
1739387935774,0.0,-0.0010652645,0.0,-0.1376666,9.593566,0.34955344
1739387935780,0.002130529,0.0,-0.0010652645,-0.11252748,9.568427,0.34715924
1739387935784,0.0010652645,0.0,-0.0010652645,-0.1388637,9.588778,0.34715924
1739387935789,0.0,0.0,0.0010652645,-0.1352724,9.591172,0.36032736
1739387935794,-0.0010652645,0.0,0.0,-0.1376666,9.593566,0.33039984
1739387935798,-0.0010652645,0.0,-0.0010652645,-0.1412579,9.599552,0.33638534
1739387935804,0.0,-0.0010652645,0.0,-0.14844051,9.622296,0.34715924
1739387935809,0.0010652645,0.0,-0.0010652645,-0.142455,9.572019,0.35314476
1739387935814,0.0,0.0,0.0,-0.12928689,9.580399,0.33997664
1739387935820,-0.0010652645,0.0,0.0010652645,-0.12689269,9.578004,0.33518824
1739387935825,0.0,0.0010652645,0.0010652645,-0.12689269,9.578004,0.33518824
1739387935827,0.0,0.0010652645,0.0010652645,-0.12689269,9.578004,0.33518824
1739387935834,0.0,0.0010652645,0.0010652645,-0.12689269,9.570822,0.35434186
1739387935839,0.0,0.0,0.0,-0.12330139,9.563639,0.32680854
1739387935845,0.0,-0.0010652645,0.0010652645,-0.1328782,9.586384,0.32680854
1739387935850,0.0,-0.0010652645,-0.0010652645,-0.1352724,9.586384,0.32920274
1739387935852,0.0,-0.0010652645,-0.0010652645,-0.1352724,9.586384,0.32920274
1739387935858,0.0010652645,0.0010652645,-0.0010652645,-0.12569559,9.586384,0.33518824
1739387935861,0.0010652645,0.0010652645,-0.0010652645,-0.12569559,9.586384,0.33518824
1739387935869,0.0010652645,-0.0010652645,-0.0010652645,-0.1328782,9.582792,0.34596214
1739387935874,0.0,-0.0010652645,-0.0010652645,-0.11372458,9.582792,0.34237084
1739387935879,0.0,-0.0010652645,-0.0010652645,-0.11372458,9.582792,0.34237084
1739387935880,0.0,-0.0010652645,-0.0010652645,-0.11372458,9.582792,0.34237084
1739387935886,0.0,0.0,-0.0010652645,-0.1388637,9.582792,0.34117374
1739387935893,0.0,0.0,-0.0031957934,-0.11492168,9.578004,0.35194764
1739387935899,0.0,0.0,-0.0010652645,-0.11372458,9.592369,0.34237084
1739387935904,-0.0010652645,0.0010652645,0.0010652645,-0.107739076,9.55885,0.33997664
1739387935910,-0.0010652645,0.0010652645,0.0010652645,-0.107739076,9.55885,0.33997664
1739387935914,-0.0010652645,0.0,0.0,-0.11731588,9.564836,0.34117374
1739387935917,-0.0010652645,0.0,0.0,-0.11731588,9.564836,0.34117374
1739387935923,0.002130529,-0.0010652645,0.0,-0.11851298,9.592369,0.36391866
1739387935928,0.0010652645,0.0010652645,0.0,-0.12689269,9.598354,0.34596214
1739387935934,0.0,0.0010652645,0.0,-0.12449849,9.561244,0.34237084
1739387935935,0.0,0.0010652645,0.0,-0.12449849,9.561244,0.34237084
1739387935939,-0.0010652645,0.0,0.0,-0.11252748,9.579201,0.35314476
1739387935943,0.0,0.0,-0.0010652645,-0.11252748,9.579201,0.35314476
1739387935948,0.0010652645,-0.0010652645,-0.0010652645,-0.1328782,9.601946,0.34835634
1739387935951,0.0010652645,-0.0010652645,-0.0010652645,-0.1328782,9.601946,0.34835634
1739387935958,0.0010652645,0.0,-0.002130529,-0.12449849,9.56723,0.34835634
1739387935961,0.0010652645,0.0,-0.002130529,-0.12449849,9.56723,0.34835634
1739387935968,0.0,-0.0010652645,0.0,-0.11611878,9.592369,0.33997664
1739387935974,-0.0010652645,0.0,-0.0010652645,-0.11851298,9.591172,0.34356794
1739387935975,-0.0010652645,0.0,-0.0010652645,-0.11851298,9.591172,0.34356794
1739387935979,-0.0010652645,-0.0010652645,0.0,-0.12928689,9.572019,0.37110126
1739387935983,0.0,0.0,-0.0010652645,-0.12330139,9.598354,0.36511576
1739387935989,0.0010652645,-0.0010652645,0.0,-0.1388637,9.569624,0.34715924
1739387935994,0.0,-0.0010652645,0.0,-0.130484,9.580399,0.34476504
1739387936000,0.0,-0.0010652645,0.0,-0.130484,9.580399,0.34476504
1739387936005,-0.0010652645,0.0,-0.0010652645,-0.1352724,9.585187,0.35194764
1739387936008,-0.0010652645,0.0,-0.0010652645,-0.1352724,9.585187,0.35194764
1739387936013,0.0,-0.0010652645,0.0,-0.12449849,9.592369,0.33399114
1739387936019,0.0010652645,-0.0010652645,0.0010652645,-0.12330139,9.568427,0.34476504
1739387936023,0.0,-0.0010652645,0.0,-0.12210429,9.557653,0.34356794
1739387936029,0.0,-0.0010652645,-0.0010652645,-0.12210429,9.574412,0.34356794
1739387936033,0.0,-0.0010652645,0.0,-0.11492168,9.56723,0.33638534
1739387936035,0.0,-0.0010652645,0.0,-0.11492168,9.56723,0.33638534
1739387936038,0.0010652645,0.0,-0.0010652645,-0.10295067,9.561244,0.33279404
1739387936043,0.0,0.0,-0.0010652645,-0.12090719,9.600749,0.32920274
1739387936048,0.0,0.0010652645,-0.0010652645,-0.12210429,9.5732155,0.34955344
1739387936054,0.0,0.0010652645,0.0,-0.1376666,9.582792,0.33758244
1739387936059,0.0010652645,0.0010652645,-0.0010652645,-0.12689269,9.580399,0.34237084
1739387936063,0.0010652645,0.0010652645,-0.0010652645,-0.12689269,9.580399,0.34237084
1739387936068,0.0,0.002130529,-0.0010652645,-0.11851298,9.570822,0.35553896
1739387936073,0.0,0.002130529,-0.0010652645,-0.11851298,9.570822,0.35553896
1739387936074,0.0,0.002130529,-0.0010652645,-0.11851298,9.570822,0.35553896
1739387936080,0.0010652645,0.0010652645,-0.0010652645,-0.110133275,9.564836,0.33758244
1739387936084,0.0,0.0,0.0,-0.12090719,9.561244,0.34955344
1739387936089,0.0010652645,0.0010652645,0.0010652645,-0.1340753,9.583989,0.35673606
1739387936093,0.0010652645,0.0010652645,0.0,-0.130484,9.572019,0.34117374
1739387936099,0.0010652645,0.0,-0.002130529,-0.11611878,9.566033,0.33997664
1739387936103,0.0,0.0010652645,0.0,-0.1316811,9.564836,0.35314476
1739387936108,-0.0010652645,0.0,-0.0010652645,-0.12090719,9.598354,0.35913026
1739387936114,0.0,-0.0010652645,-0.0010652645,-0.11971009,9.594764,0.32680854
1739387936118,0.0,-0.0010652645,0.0,-0.12330139,9.560047,0.34835634
1739387936124,0.0010652645,0.0,0.0010652645,-0.12330139,9.560047,0.34835634
1739387936128,0.0010652645,0.0,0.0,-0.11492168,9.57561,0.34835634
1739387936133,0.0,0.0,-0.0010652645,-0.1352724,9.568427,0.35673606
1739387936139,-0.0010652645,0.0010652645,-0.0010652645,-0.1448492,9.544485,0.33279404
1739387936144,0.0010652645,0.0010652645,-0.0010652645,-0.12090719,9.585187,0.34476504
1739387936148,0.0010652645,0.0010652645,-0.0010652645,-0.12090719,9.585187,0.34476504
1739387936154,0.002130529,0.0010652645,-0.0010652645,-0.107739076,9.589975,0.34356794
1739387936159,0.0,0.0010652645,0.0,-0.1340753,9.589975,0.33399114
1739387936164,-0.0010652645,0.0,0.002130529,-0.1328782,9.579201,0.35793316
1739387936169,0.0,0.0,0.0,-0.12210429,9.562442,0.34955344
1739387936174,0.0010652645,0.0010652645,-0.0010652645,-0.12569559,9.562442,0.34596214
1739387936181,0.0010652645,0.0,0.0010652645,-0.1328782,9.592369,0.34955344
1739387936183,0.0010652645,0.0,-0.0010652645,-0.1328782,9.592369,0.34955344
1739387936189,0.0,-0.0010652645,0.0,-0.1364695,9.589975,0.34356794
1739387936194,0.0010652645,0.0,0.0,-0.11971009,9.557653,0.34476504
1739387936200,0.0,0.0,0.0,-0.12808979,9.619903,0.35673606
1739387936205,0.0,0.0,0.0,-0.12330139,9.589975,0.34237084
1739387936209,0.0,0.0,0.0,-0.12330139,9.589975,0.34237084
1739387936215,0.0010652645,0.0,0.0,-0.12808979,9.582792,0.34237084
1739387936220,0.002130529,0.0010652645,0.0010652645,-0.1388637,9.5732155,0.35913026
1739387936223,0.0,0.0010652645,0.0010652645,-0.12689269,9.564836,0.34715924
1739387936229,0.0,0.0,0.0010652645,-0.12330139,9.587581,0.35434186
1739387936235,-0.0010652645,-0.0010652645,0.0010652645,-0.11372458,9.574412,0.35434186
1739387936241,0.0,0.0,0.0,-0.11492168,9.591172,0.33518824
1739387936243,0.0010652645,0.002130529,-0.0010652645,-0.11492168,9.591172,0.33518824
1739387936248,0.0,0.0010652645,-0.0010652645,-0.12449849,9.606734,0.33399114
1739387936253,0.0,0.0010652645,-0.0010652645,-0.12449849,9.606734,0.33399114
1739387936260,0.0,0.0,0.0,-0.11133038,9.615114,0.33997664
1739387936267,0.0,0.0,-0.0010652645,-0.12449849,9.582792,0.34476504
1739387936275,0.0,0.0,0.0010652645,-0.11851298,9.587581,0.34237084
1739387936280,0.0,-0.0010652645,0.0,-0.12330139,9.592369,0.34955344
1739387936286,-0.0010652645,0.0,0.0010652645,-0.10295067,9.594764,0.36511576
1739387936290,0.0,0.0,0.0010652645,-0.12210429,9.591172,0.36032736
1739387936294,0.0010652645,0.0010652645,0.0,-0.11851298,9.576807,0.35673606
1739387936299,0.0010652645,0.0,-0.0010652645,-0.11971009,9.5971575,0.37110126
1739387936304,0.0,0.0010652645,0.0,-0.11971009,9.5971575,0.37110126
1739387936309,0.0,0.0010652645,-0.0010652645,-0.108936176,9.593566,0.35793316
1739387936314,0.0,0.0010652645,0.0,-0.10534488,9.585187,0.34237084
1739387936316,0.0,0.0010652645,0.0,-0.10534488,9.585187,0.34237084
1739387936320,0.0,0.0,0.0010652645,-0.108936176,9.594764,0.35075054
1739387936323,0.0,-0.0010652645,0.0010652645,-0.11372458,9.622296,0.34596214
1739387936329,0.0,-0.0010652645,0.0,-0.14724341,9.606734,0.33997664
1739387936334,0.0010652645,0.0,-0.0010652645,-0.142455,9.595961,0.34476504
1739387936340,0.0010652645,0.0,-0.0010652645,-0.142455,9.595961,0.34476504
1739387936346,0.0010652645,0.0,-0.0010652645,-0.130484,9.628283,0.34835634
1739387936350,0.0,-0.0010652645,-0.002130529,-0.142455,9.605537,0.35314476
1739387936354,0.0,0.0,-0.002130529,-0.12569559,9.611523,0.33638534
1739387936359,0.0010652645,0.0010652645,0.0,-0.11851298,9.557653,0.34476504
1739387936362,0.0010652645,0.0010652645,0.0,-0.11851298,9.557653,0.34476504
1739387936368,0.002130529,0.0010652645,0.0,-0.108936176,9.5492735,0.34237084
1739387936372,0.002130529,0.0010652645,0.0,-0.108936176,9.5492735,0.34237084
1739387936379,0.0010652645,0.0,-0.0010652645,-0.12689269,9.621099,0.32920274
1739387936383,0.0010652645,0.0,-0.0010652645,-0.11372458,9.572019,0.33877954
1739387936388,0.0010652645,0.0,0.0,-0.11372458,9.5492735,0.34596214
1739387936393,0.0,0.0,0.0,-0.12689269,9.574412,0.36152446
1739387936399,0.0,0.0,0.0,-0.12689269,9.574412,0.36152446
1739387936403,0.0010652645,0.0,0.0,-0.130484,9.585187,0.34476504
1739387936409,0.0010652645,0.0,0.0,-0.130484,9.585187,0.34476504
1739387936414,0.0010652645,0.0,0.0,-0.130484,9.585187,0.34476504
1739387936420,0.0,0.0,-0.0010652645,-0.1388637,9.57561,0.36511576
1739387936425,-0.0010652645,0.0,-0.002130529,-0.1388637,9.57561,0.36511576
1739387936430,0.0,0.0010652645,0.0,-0.11252748,9.570822,0.35553896
1739387936433,0.0010652645,0.0,0.0010652645,-0.12090719,9.582792,0.34356794
1739387936438,-0.0010652645,0.0010652645,0.0,-0.12928689,9.557653,0.33399114
1739387936444,0.0,0.0,0.0,-0.1388637,9.557653,0.34715924
1739387936449,0.0010652645,0.0,0.0,-0.1388637,9.587581,0.35913026
1739387936453,0.0,0.0,-0.002130529,-0.1316811,9.661801,0.34237084
1739387936459,0.002130529,0.002130529,0.0,-0.12808979,9.598354,0.35434186
1739387936464,0.002130529,0.0,0.0,-0.108936176,9.545682,0.35553896
1739387936465,0.002130529,0.0,0.0,-0.108936176,9.545682,0.35553896
1739387936469,0.0010652645,-0.0010652645,-0.0010652645,-0.11731588,9.572019,0.34356794
1739387936474,0.002130529,-0.0010652645,-0.0010652645,-0.12210429,9.622296,0.34356794
1739387936479,0.0,-0.0010652645,0.0,-0.12928689,9.593566,0.35553896
1739387936484,-0.0010652645,0.0,-0.0010652645,-0.12928689,9.593566,0.35553896
1739387936491,-0.0010652645,0.0,-0.0010652645,-0.12928689,9.593566,0.35553896
1739387936494,0.0,0.0,-0.002130529,-0.107739076,9.574412,0.35194764
1739387936498,0.0,0.0010652645,-0.0010652645,-0.12330139,9.592369,0.35194764
1739387936503,0.0,0.0,-0.0031957934,-0.12689269,9.586384,0.34596214
1739387936509,0.0010652645,0.0010652645,-0.0010652645,-0.12808979,9.636662,0.34715924
1739387936513,0.0,0.0010652645,-0.0010652645,-0.12928689,9.591172,0.34596214
1739387936519,0.0,0.0010652645,0.0,-0.12569559,9.560047,0.33877954
1739387936523,-0.0010652645,0.0,0.0,-0.11971009,9.56723,0.35434186
1739387936529,0.0010652645,0.0010652645,0.0010652645,-0.12808979,9.572019,0.36272156
1739387936533,0.0010652645,0.0010652645,-0.0010652645,-0.12090719,9.588778,0.36511576
1739387936539,0.0010652645,0.0,-0.0010652645,-0.1316811,9.581595,0.35673606
1739387936542,0.0010652645,0.0,-0.0010652645,-0.1316811,9.581595,0.35673606
1739387936548,0.0,0.0,0.0010652645,-0.12090719,9.572019,0.34715924
1739387936550,0.0,0.0,0.0010652645,-0.12090719,9.572019,0.34715924
1739387936555,0.0,0.0,0.0,-0.11611878,9.57561,0.33399114
1739387936557,0.0,0.0,0.0,-0.11611878,9.57561,0.33399114
1739387936564,0.0010652645,0.0010652645,-0.0010652645,-0.12689269,9.593566,0.34237084
1739387936569,0.002130529,0.0,-0.0010652645,-0.12449849,9.589975,0.34476504
1739387936571,0.002130529,0.0,-0.0010652645,-0.12449849,9.589975,0.34476504
1739387936579,0.0,-0.0010652645,0.0,-0.11611878,9.560047,0.35913026
1739387936583,0.0,0.0010652645,0.0,-0.1388637,9.576807,0.34715924
1739387936588,0.0,0.0010652645,-0.0031957934,-0.1352724,9.587581,0.33518824
1739387936593,0.002130529,0.0010652645,-0.0031957934,-0.130484,9.600749,0.34237084
1739387936599,0.0,0.0010652645,-0.002130529,-0.130484,9.581595,0.35075054
1739387936603,0.002130529,0.0010652645,0.0,-0.130484,9.581595,0.35075054
1739387936608,0.002130529,0.0010652645,-0.002130529,-0.1316811,9.570822,0.36272156
1739387936613,0.0,0.0010652645,-0.0010652645,-0.11731588,9.568427,0.34476504
1739387936618,0.0,0.0,-0.0010652645,-0.11252748,9.56723,0.3172317
1739387936623,0.0,-0.0010652645,-0.0010652645,-0.12808979,9.548077,0.33638534
1739387936628,0.0,0.0,-0.0010652645,-0.12569559,9.56723,0.34117374
1739387936630,0.0,0.0,-0.0010652645,-0.12569559,9.56723,0.34117374
1739387936635,0.0,0.0,-0.0010652645,-0.12689269,9.566033,0.34596214
1739387936639,0.0,0.0010652645,-0.0010652645,-0.11133038,9.562442,0.33518824
1739387936643,0.0,0.0,-0.0010652645,-0.12689269,9.593566,0.33877954
1739387936650,0.0,0.0010652645,-0.0010652645,-0.12808979,9.543288,0.34955344
1739387936653,0.0,0.0,-0.0010652645,-0.11611878,9.548077,0.34237084
1739387936659,0.0010652645,0.0,-0.0010652645,-0.1340753,9.587581,0.34835634
1739387936663,0.002130529,0.0010652645,-0.0010652645,-0.1340753,9.587581,0.34835634
1739387936669,0.002130529,0.0,-0.0010652645,-0.11731588,9.599552,0.33279404
1739387936672,0.0010652645,0.0,-0.0010652645,-0.108936176,9.603143,0.34715924
1739387936678,0.0,-0.0010652645,0.0010652645,-0.11851298,9.600749,0.33877954
1739387936682,0.0010652645,-0.0010652645,0.0010652645,-0.12569559,9.566033,0.34715924
1739387936689,0.002130529,0.0,0.0,-0.130484,9.572019,0.33279404
1739387936693,0.002130529,0.0,0.0,-0.1316811,9.570822,0.34476504
1739387936700,0.002130529,0.0,0.0,-0.1316811,9.570822,0.34476504
1739387936704,0.0010652645,0.0,0.0,-0.12569559,9.570822,0.33399114
1739387936709,0.0010652645,0.0,0.0,-0.1316811,9.57561,0.34715924
1739387936714,0.0010652645,0.0,-0.0010652645,-0.12689269,9.605537,0.35553896
1739387936718,0.0010652645,0.0,-0.0010652645,-0.1364695,9.55885,0.36750996
1739387936723,0.0010652645,-0.0010652645,0.0010652645,-0.1364695,9.55885,0.36750996
1739387936727,0.0,0.0,0.0,-0.142455,9.554062,0.36032736
1739387936733,-0.0010652645,0.0010652645,0.0010652645,-0.11731588,9.604341,0.35793316
1739387936739,0.0,0.0,0.0,-0.14844051,9.5971575,0.34117374
1739387936744,0.0,0.0,-0.0010652645,-0.12090719,9.580399,0.35673606
1739387936750,0.0,0.0,-0.0010652645,-0.12090719,9.580399,0.35673606
1739387936755,0.0,0.0,0.0,-0.12449849,9.587581,0.33877954
1739387936757,0.0,0.0,0.0,-0.12449849,9.587581,0.33877954
1739387936763,0.0010652645,-0.0010652645,0.0010652645,-0.12449849,9.582792,0.33758244
1739387936768,0.0,-0.0010652645,0.0,-0.1388637,9.624691,0.33877954
1739387936772,0.0,-0.0010652645,0.0,-0.1388637,9.624691,0.33877954
1739387936779,-0.0010652645,0.0,0.0010652645,-0.1364695,9.591172,0.34356794
1739387936784,0.0010652645,0.0010652645,0.0010652645,-0.1364695,9.591172,0.34356794
1739387936789,0.002130529,0.0010652645,0.002130529,-0.1388637,9.589975,0.34596214
1739387936794,0.002130529,0.0010652645,0.0010652645,-0.12689269,9.580399,0.35075054
1739387936800,0.002130529,0.0010652645,0.0010652645,-0.12689269,9.580399,0.35075054
1739387936804,0.0010652645,0.0,0.0,-0.1376666,9.599552,0.33399114
1739387936809,0.0010652645,0.0010652645,0.0,-0.1340753,9.562442,0.32321724
1739387936811,0.0010652645,0.0010652645,0.0,-0.1340753,9.562442,0.32321724
1739387936819,0.002130529,0.0,-0.0010652645,-0.12928689,9.593566,0.33638534
1739387936824,0.0010652645,0.0,0.0,-0.1352724,9.563639,0.35913026
1739387936830,0.0010652645,0.0,0.0,-0.1352724,9.563639,0.35913026
1739387936834,0.0010652645,-0.0010652645,-0.0010652645,-0.11731588,9.580399,0.35314476
1739387936839,0.0010652645,0.0,0.0,-0.12330139,9.570822,0.35194764
1739387936843,-0.0010652645,0.002130529,-0.0010652645,-0.12330139,9.570822,0.35194764
1739387936848,0.0,0.0010652645,-0.0010652645,-0.12808979,9.581595,0.34356794
1739387936853,0.0,0.0,-0.0010652645,-0.1352724,9.57561,0.32920274
1739387936858,0.0,0.0,-0.002130529,-0.1412579,9.580399,0.35314476
1739387936863,0.0,0.0,-0.0010652645,-0.1316811,9.57561,0.35434186
1739387936869,0.0010652645,0.0,-0.0010652645,-0.1316811,9.56723,0.36631286
1739387936874,0.0,0.0,0.0,-0.1412579,9.601946,0.35553896
1739387936876,0.0,0.0,0.0,-0.1412579,9.601946,0.35553896
1739387936879,-0.0010652645,0.0,-0.002130529,-0.1376666,9.64145,0.34117374
1739387936883,0.0010652645,0.0,0.0,-0.1400608,9.5385,0.33518824
1739387936888,0.0,0.0,0.0010652645,-0.14604631,9.601946,0.34356794
1739387936894,-0.0031957934,0.0,-0.0010652645,-0.1376666,9.655815,0.33997664
1739387936899,0.0,0.0010652645,-0.0010652645,-0.142455,9.552865,0.33638534
1739387936904,0.0010652645,0.0010652645,0.0010652645,-0.142455,9.552865,0.33638534
1739387936910,0.0010652645,0.0010652645,0.0010652645,-0.142455,9.552865,0.33638534
1739387936915,-0.0010652645,0.002130529,0.0,-0.11971009,9.578004,0.34715924
1739387936918,-0.0010652645,0.002130529,0.0,-0.11971009,9.578004,0.34715924
1739387936924,0.0010652645,0.0010652645,0.0010652645,-0.12928689,9.56723,0.35434186
1739387936928,0.0,0.002130529,0.0,-0.110133275,9.594764,0.34955344
1739387936933,0.0,0.0,0.0,-0.1328782,9.593566,0.34596214
1739387936938,0.0010652645,0.0,-0.0010652645,-0.142455,9.5492735,0.35314476
1739387936943,0.0,0.0010652645,0.0,-0.1316811,9.57561,0.33877954
1739387936948,-0.0010652645,0.0010652645,0.0,-0.1352724,9.607931,0.33877954
1739387936953,0.0,0.0,0.0010652645,-0.1376666,9.589975,0.33758244
1739387936960,0.0,-0.0010652645,0.0,-0.1352724,9.593566,0.33758244
1739387936963,0.0,-0.002130529,-0.0010652645,-0.1352724,9.593566,0.33758244
1739387936968,0.0,-0.0010652645,0.0010652645,-0.1316811,9.563639,0.34715924
1739387936970,0.0,-0.0010652645,0.0010652645,-0.1316811,9.563639,0.34715924
1739387936974,0.0010652645,0.0,0.0,-0.1340753,9.570822,0.34356794
1739387936979,0.0010652645,0.0010652645,-0.0010652645,-0.12569559,9.581595,0.34596214
1739387936981,0.0010652645,0.0010652645,-0.0010652645,-0.12569559,9.581595,0.34596214
1739387936984,0.0,0.0010652645,-0.0010652645,-0.130484,9.580399,0.35913026
1739387936989,0.0010652645,0.0,-0.0010652645,-0.14963761,9.5732155,0.35314476
1739387936994,0.0010652645,0.0,-0.0010652645,-0.14963761,9.5732155,0.35314476
1739387937004,-0.0010652645,0.0,-0.0010652645,-0.1340753,9.5971575,0.33877954
1739387937010,-0.0010652645,0.0,-0.0010652645,-0.1340753,9.5971575,0.33877954
1739387937015,0.0,0.0,-0.0010652645,-0.1364695,9.57561,0.34835634
1739387937017,0.0,0.0,-0.0010652645,-0.1364695,9.57561,0.34835634
1739387937020,-0.0010652645,-0.0010652645,-0.002130529,-0.11133038,9.570822,0.34596214
1739387937024,-0.0010652645,0.0,-0.0010652645,-0.11133038,9.570822,0.34596214
1739387937029,-0.0010652645,0.0010652645,0.0,-0.12330139,9.56723,0.35673606
1739387937033,0.0,0.002130529,-0.0010652645,-0.11133038,9.563639,0.34117374
1739387937038,-0.0010652645,0.0,-0.0010652645,-0.12090719,9.586384,0.34835634
1739387937043,0.0,0.0,-0.0010652645,-0.12689269,9.587581,0.36631286
1739387937048,0.0,0.0,0.0010652645,-0.130484,9.579201,0.34835634
1739387937053,0.0,0.0,0.0,-0.1352724,9.570822,0.32441434
1739387937059,-0.0010652645,0.0,0.0,-0.130484,9.617508,0.34596214
1739387937064,-0.0010652645,0.002130529,-0.0010652645,-0.1340753,9.594764,0.35075054
1739387937070,-0.0010652645,0.002130529,-0.0010652645,-0.1340753,9.594764,0.35075054
1739387937075,0.0010652645,0.0010652645,0.0010652645,-0.1328782,9.55885,0.36152446
1739387937077,0.0010652645,0.0010652645,0.0010652645,-0.1328782,9.55885,0.36152446
1739387937082,-0.0010652645,0.0,0.0,-0.1340753,9.593566,0.35075054
1739387937088,0.0,0.0,-0.0010652645,-0.1316811,9.570822,0.33279404
1739387937093,0.0,0.0,0.0,-0.1412579,9.55885,0.33758244
1739387937095,0.0,0.0,0.0,-0.1412579,9.55885,0.33758244
1739387937098,-0.0010652645,0.0010652645,0.0,-0.12330139,9.566033,0.34237084
1739387937103,0.0,0.0010652645,-0.002130529,-0.14724341,9.599552,0.34835634
1739387937108,0.0,0.0010652645,0.0,-0.11851298,9.563639,0.34596214
1739387937114,0.0,0.0,0.0,-0.12449849,9.593566,0.33518824
1739387937116,0.0,0.0,0.0,-0.12449849,9.593566,0.33518824
1739387937119,-0.002130529,0.0,-0.0010652645,-0.12808979,9.592369,0.33877954
1739387937123,-0.0010652645,0.0,-0.0010652645,-0.15083471,9.582792,0.32441434
1739387937128,0.0,0.0,-0.002130529,-0.1448492,9.5385,0.32920274
1739387937134,0.0,0.0010652645,0.0,-0.1388637,9.587581,0.33039984
1739387937139,-0.0010652645,0.002130529,0.0010652645,-0.11971009,9.5971575,0.33518824
1739387937144,0.0,0.0010652645,0.0010652645,-0.11971009,9.5971575,0.33518824
1739387937150,0.0,0.0010652645,0.0010652645,-0.11971009,9.5971575,0.33518824
1739387937154,0.0,0.0,-0.0010652645,-0.1376666,9.587581,0.35673606
1739387937158,0.0010652645,-0.0010652645,0.0,-0.1364695,9.593566,0.35194764
1739387937163,0.0010652645,0.0010652645,0.0,-0.12330139,9.546879,0.34715924
1739387937169,0.0,0.0,-0.0010652645,-0.1316811,9.583989,0.36511576
1739387937173,-0.0010652645,0.0,-0.0010652645,-0.1352724,9.598354,0.34356794
1739387937178,0.002130529,0.0,0.0010652645,-0.12449849,9.589975,0.33279404
1739387937181,0.002130529,0.0,0.0010652645,-0.12449849,9.589975,0.33279404
1739387937188,-0.0010652645,0.0,-0.0010652645,-0.1388637,9.5732155,0.35075054
1739387937194,0.0,0.0010652645,0.0,-0.1352724,9.563639,0.33997664
1739387937199,0.0,0.0,0.0,-0.1388637,9.603143,0.35913026
1739387937204,-0.0010652645,0.0,-0.002130529,-0.1388637,9.603143,0.35913026
1739387937205,-0.0010652645,0.0,-0.002130529,-0.1388637,9.603143,0.35913026
1739387937208,0.0,0.0,-0.0010652645,-0.12569559,9.601946,0.34356794
1739387937213,0.0,0.0,-0.0010652645,-0.12090719,9.605537,0.33997664
1739387937219,0.0,0.0,-0.0010652645,-0.11252748,9.589975,0.33997664
1739387937224,-0.0010652645,-0.0010652645,-0.002130529,-0.11971009,9.606734,0.34237084
1739387937226,-0.0010652645,-0.0010652645,-0.002130529,-0.11971009,9.606734,0.34237084
1739387937231,0.0,0.0010652645,-0.0010652645,-0.1364695,9.616311,0.36272156
1739387937235,0.0,0.0010652645,-0.0010652645,-0.1364695,9.616311,0.36272156
1739387937240,0.0,0.0,-0.0010652645,-0.12569559,9.582792,0.33399114
1739387937244,0.0,0.0,-0.0010652645,-0.107739076,9.592369,0.34237084
1739387937249,0.0010652645,0.0,-0.002130529,-0.107739076,9.591172,0.34715924
1739387937254,0.0010652645,0.0,-0.002130529,-0.142455,9.579201,0.35673606
1739387937259,0.0010652645,0.0010652645,-0.0010652645,-0.12090719,9.595961,0.35434186
1739387937264,0.0,-0.0010652645,0.0,-0.12090719,9.595961,0.35434186
1739387937270,0.0,-0.0010652645,0.0,-0.12090719,9.595961,0.35434186
1739387937273,0.0,0.0,0.0,-0.1388637,9.57561,0.33518824
1739387937279,0.0010652645,0.0,0.0,-0.12090719,9.611523,0.34356794
1739387937281,0.0010652645,0.0,0.0,-0.12090719,9.611523,0.34356794
1739387937288,0.0,0.0,0.0,-0.1328782,9.581595,0.34476504
1739387937293,-0.0010652645,0.0,-0.0010652645,-0.1412579,9.591172,0.33877954
1739387937298,-0.0010652645,0.0,-0.0010652645,-0.1412579,9.574412,0.33039984
1739387937303,0.0,0.0,-0.002130529,-0.142455,9.5732155,0.34476504
1739387937309,0.0010652645,0.0,-0.0010652645,-0.12569559,9.5732155,0.34237084
1739387937314,0.0,0.0,-0.0010652645,-0.1340753,9.55047,0.33758244
1739387937320,0.0010652645,0.0,0.0,-0.11492168,9.557653,0.34237084
1739387937326,-0.0010652645,-0.0010652645,0.0,-0.11492168,9.557653,0.34237084
1739387937329,0.0,0.0,0.0010652645,-0.12449849,9.583989,0.33399114
1739387937333,0.0,0.0010652645,0.0010652645,-0.12449849,9.583989,0.33399114
1739387937339,-0.002130529,0.002130529,0.0010652645,-0.1340753,9.581595,0.33638534
